timestamp,timestamp_sample,ref_timestamp,ref_lat,ref_lon,x,y,z,delta_xy[0],delta_xy[1],delta_z,vx,vy,vz,z_deriv,delta_vxy[0],delta_vxy[1],delta_vz,ax,ay,az,heading,heading_var,unaided_heading,delta_heading,tilt_var,ref_alt,dist_bottom,eph,epv,evh,evv,vxy_max,vz_max,hagl_min,hagl_max,xy_valid,z_valid,v_xy_valid,v_z_valid,xy_reset_counter,z_reset_counter,vxy_reset_counter,vz_reset_counter,heading_reset_counter,heading_good_for_control,xy_global,z_global,dist_bottom_valid,dist_bottom_sensor_bitfield,dead_reckoning
200542525,200541729,42042859,60.1877325,24.832678599999998,0.045853835,-0.9829889,-3.0697494,0.2201162,0.143384,-2.0861626e-07,0.00040891996,-0.01142711,0.03109869,0.059271116,-0.025945434,0.04994766,0.011585729,0.032226723,-0.033136126,-0.10775197,-2.1899083,0.05088221,-0.0063723247,0.00729649,6.471999e-05,-9.646487,0.09535146,0.23967156,0.22687893,0.108122475,0.06458544,inf,inf,inf,inf,1,1,1,1,3,2,3,2,2,0,1,1,1,0,0
201042363,201041729,42042859,60.1877325,24.832678599999998,0.043541078,-0.9916016,-3.0393512,0.2201162,0.143384,-2.0861626e-07,0.0001987858,-0.008566642,0.04103892,0.06710285,-0.025945434,0.04994766,0.011585729,0.045312826,0.09685305,0.15378384,-2.1895094,0.05087928,-0.0063174805,0.00729649,6.474329e-05,-9.646487,0.090717554,0.24004516,0.22753772,0.10817117,0.06464299,inf,inf,inf,inf,1,1,1,1,3,2,3,2,2,0,1,1,1,0,0
201542176,201541729,42042859,60.1877325,24.832678599999998,0.03733008,-0.997446,-3.0078006,0.2201162,0.143384,-2.0861626e-07,-0.00542411,-0.0052147675,0.051184278,0.07323028,-0.025945434,0.04994766,0.011585729,0.035479397,-0.20549911,0.12134906,-2.1891067,0.05087423,-0.006321455,0.00729649,6.476657e-05,-9.646487,0.08639312,0.24040395,0.22771199,0.108209774,0.06464873,inf,inf,inf,inf,1,1,1,1,3,2,3,2,2,0,1,1,1,0,0
202042391,202041729,42042859,60.1877325,24.832678599999998,0.033211596,-1.0003251,-2.9823573,0.2201162,0.143384,-2.0861626e-07,-0.0068932865,-0.004465538,0.05815734,0.06995923,-0.025945434,0.04994766,0.011585729,0.086421594,0.27871734,0.2503125,-2.1888304,0.050867803,-0.006336029,0.00729649,6.4790955e-05,-9.646487,0.08000064,0.2407407,0.22786391,0.108224176,0.06464924,inf,inf,inf,inf,1,1,1,1,3,2,3,2,2,0,1,1,1,0,0
202542429,202541729,42042859,60.1877325,24.832678599999998,0.023917254,-1.0048494,-2.957064,0.2201162,0.143384,-2.0861626e-07,-0.010693271,-0.00026088048,0.06373089,0.0678346,-0.025945434,0.04994766,0.011585729,0.05462717,0.28031567,0.24415743,-2.1885567,0.05086017,-0.006326774,0.00729649,6.481169e-05,-9.646487,0.08197498,0.24102426,0.22846049,0.10821454,0.064692765,inf,inf,inf,inf,1,1,1,1,3,2,3,2,2,0,1,1,1,0,0
203042425,203041729,42042859,60.1877325,24.832678599999998,0.014377902,-1.0087183,-2.9321127,0.2201162,0.143384,-2.0861626e-07,-0.013149905,-0.0009718382,0.06715247,0.06476706,-0.025945434,0.04994766,0.011585729,-0.20588338,-0.03707824,-0.17453301,-2.188129,0.050852083,-0.006342641,0.00729649,6.48227e-05,-9.646487,0.08231497,0.24124143,0.22853817,0.10814648,0.06467483,inf,inf,inf,inf,1,1,1,1,3,2,3,2,2,0,1,1,1,0,0
203542348,203541731,42042859,60.1877325,24.832678599999998,0.0017856077,-1.0172454,-2.9038246,0.2201162,0.143384,-2.0861626e-07,-0.020091338,-0.004839687,0.07600116,0.069780454,-0.025945434,0.04994766,0.011585729,-0.2686807,-0.09593065,0.0062131607,-2.1876044,0.05084394,-0.006337891,0.00729649,6.483987e-05,-9.646487,0.08085799,0.24145375,0.22859725,0.1081017,0.06465947,inf,inf,inf,inf,1,1,1,1,3,2,3,2,2,0,1,1,1,0,0
204042361,204041729,42042859,60.1877325,24.832678599999998,-0.010092481,-1.0191442,-2.8708303,0.2201162,0.143384,-2.0861626e-07,-0.018370233,-0.005852987,0.082158536,0.075143114,-0.025945434,0.04994766,0.011585729,0.23064546,-0.2949541,0.14519748,-2.1873455,0.050836056,-0.0062941466,0.00729649,6.48658e-05,-9.646487,0.0843482,0.24168953,0.22917274,0.108098105,0.064701,inf,inf,inf,inf,1,1,1,1,3,2,3,2,2,0,1,1,1,0,0
204542192,204541729,42042859,60.1877325,24.832678599999998,-0.016524356,-1.0103507,-2.8337798,0.2201162,0.143384,-2.0861626e-07,-0.014743298,0.0028435776,0.08271438,0.075175725,-0.025945434,0.04994766,0.011585729,1.1139147,0.9378367,-0.12557897,-2.1869807,0.050826926,-0.0061698295,0.00729649,6.490605e-05,-9.646487,0.08062887,0.24193618,0.2292731,0.108129255,0.06470118,inf,inf,inf,inf,1,1,1,1,3,2,3,2,2,0,1,1,0,0,0
205042444,205041729,42042859,60.1877325,24.832678599999998,-0.015063956,-1.0123744,-2.8063574,0.2201162,0.143384,-2.0861626e-07,-0.014062851,0.008973822,0.071828485,0.056997437,-0.025945434,0.04994766,0.011585729,-0.9789715,0.9474877,0.3171457,-2.1861703,0.050818633,-0.006242092,0.00729649,6.493341e-05,-9.646487,0.077875614,0.24213885,0.22933693,0.10813297,0.064691864,inf,inf,inf,inf,1,1,1,1,3,2,3,2,2,0,1,1,0,0,0
205542376,205541729,42042859,60.1877325,24.832678599999998,-0.0013724355,-1.0261407,-2.8047872,0.2201162,0.143384,-2.0861626e-07,0.09462503,-0.07774372,-0.015882395,-0.042543434,-0.025945434,0.04994766,0.011585729,-1.1916438,-2.2793305,-1.1999058,-2.1810927,0.05076607,-0.0016168869,0.00729649,6.494137e-05,-9.646487,0.08841109,0.2423802,0.22941245,0.108644426,0.06469457,inf,inf,inf,inf,1,1,1,1,3,2,3,2,2,0,1,1,0,0,0
206042375,206041729,42042859,60.1877325,24.832678599999998,0.08935515,-1.0633954,-2.9112537,0.2201162,0.143384,-2.0861626e-07,0.21181089,-0.060146265,-0.29047465,-0.3200012,-0.025945434,0.04994766,0.011585729,-0.83228,1.6634471,-0.4186021,-2.1114914,0.047860477,0.061252356,0.00729649,6.473721e-05,-9.646487,0.19553256,0.24256657,0.22995937,0.11476842,0.0647395,inf,inf,inf,inf,1,1,1,1,3,2,3,2,2,0,1,1,0,0,0
207042433,207041729,42042859,60.1877325,24.832678599999998,0.19296318,-1.042937,-3.4309146,0.2201162,0.143384,-2.0861626e-07,-0.06529025,0.028309809,-0.71042806,-0.7305707,-0.025945434,0.04994766,0.011585729,0.32082674,-0.884958,-3.1134834,-2.0469003,0.041466977,0.10710802,0.00729649,6.391003e-05,-9.646487,0.7151935,0.2430126,0.22998282,0.111706525,0.064728074,inf,inf,inf,inf,1,1,1,1,3,2,3,2,2,0,1,1,0,0,0
207542376,207541729,42042859,60.1877325,24.832678599999998,0.13718416,-1.0325719,-3.8377974,0.2201162,0.143384,-2.0861626e-07,-0.16310573,0.056911733,-0.8645774,-0.88444686,-0.025945434,0.04994766,0.011585729,0.5402042,-0.40972045,1.2825364,-2.0701556,0.03720583,0.0788911,0.00729649,6.3363106e-05,-9.646487,1.1220763,0.24322923,0.230457,0.11430097,0.06478487,inf,inf,inf,inf,1,1,1,1,3,2,3,2,2,0,1,1,0,0,0
208042344,208041729,42042859,60.1877325,24.832678599999998,0.0443561,-1.011366,-4.3252387,0.2201162,0.143384,-2.0861626e-07,-0.18729496,0.0765241,-1.0188494,-1.041443,-0.025945434,0.04994766,0.011585729,-0.67906046,1.5412486,1.176056,-2.1424985,0.033453662,-0.003104773,0.00729649,6.314895e-05,-9.646487,1.6095176,0.24346656,0.23042251,0.114892475,0.06479779,inf,inf,inf,inf,1,1,1,1,3,2,3,2,2,0,1,1,0,0,0
208542386,208541729,42042859,60.1877325,24.832678599999998,-0.0050785504,-0.99774706,-4.8778133,0.2201162,0.143384,-2.0861626e-07,-0.090155154,-0.015406041,-1.1090143,-1.1401781,-0.025945434,0.04994766,0.011585729,-0.69430053,0.33448052,-1.95587,-2.2132134,0.06716236,-0.05168843,-0.026442554,6.303322e-05,-9.646487,2.1620922,0.24374755,0.2303833,0.11165592,0.064812325,inf,inf,inf,inf,1,1,1,1,3,2,3,2,3,0,1,1,0,0,0
209042379,209041729,42042859,60.1877325,24.832678599999998,-0.087894514,-1.0629478,-5.4877505,0.2201162,0.143384,-2.0861626e-07,-0.27964392,-0.31625375,-1.199899,-1.2486918,-0.025945434,0.04994766,0.011585729,-1.2515316,0.7350629,0.98783153,-2.1974928,0.06132964,-0.04276552,-0.026442554,6.312417e-05,-9.646487,2.7720294,0.24401112,0.2308219,0.11934202,0.06488751,inf,inf,inf,inf,1,1,1,1,3,2,3,2,3,0,1,1,0,0,0
209542348,209541729,42042859,60.1877325,24.832678599999998,-0.291364,-1.3439379,-6.1669664,0.2201162,0.143384,-2.0861626e-07,-0.55440986,-0.7856072,-1.3279153,-1.3918191,-0.025945434,0.04994766,0.011585729,-0.29404622,-0.39438438,-0.086859934,-2.0924845,0.03777525,0.035646074,-0.026442554,6.401179e-05,-9.646487,3.4512453,0.24419072,0.2307274,0.1509558,0.0649268,inf,inf,inf,inf,1,1,1,1,3,2,3,2,3,1,1,1,0,0,0
210042347,210041729,42042859,60.1877325,24.832678599999998,-0.6447583,-1.9030659,-6.8848925,0.2201162,0.143384,-2.0861626e-07,-0.906468,-1.42061,-1.3546028,-1.4245507,-0.025945434,0.04994766,0.011585729,-1.6200737,-1.1572473,2.644784,-1.9915353,0.017050603,0.12601455,-0.026442554,6.565532e-05,-9.646487,4.1691713,0.2444478,0.2306385,0.15841489,0.065002285,inf,inf,inf,inf,1,1,1,1,3,2,3,2,3,1,1,1,0,0,0
210542227,210541729,42042859,60.1877325,24.832678599999998,-1.157801,-2.762517,-7.6269174,0.2201162,0.143384,-2.0861626e-07,-1.1720041,-1.952876,-1.3654174,-1.4464114,-0.025945434,0.04994766,0.011585729,-1.4768465,-1.4199402,2.174211,-1.9870414,0.0081429025,0.12066375,-0.026442554,6.7275556e-05,-9.646487,4.911196,0.24468231,0.23051837,0.14658348,0.06508515,inf,inf,inf,inf,1,1,1,1,3,2,3,2,3,1,1,1,0,0,0
211542420,211541729,42042859,60.1877325,24.832678599999998,-2.406147,-5.194675,-9.203403,0.2201162,0.143384,-2.0861626e-07,-1.2236176,-2.6533763,-1.6746022,-1.7584382,-0.025945434,0.04994766,0.011585729,0.10702319,-5.126845,0.61506236,-1.930009,0.003974416,0.18547888,-0.026442554,7.07168e-05,-9.646487,6.4876823,0.24525318,0.23079559,0.12228244,0.065163895,inf,inf,inf,inf,1,1,1,1,3,2,3,2,3,1,1,1,0,0,0
212042195,212041729,42042859,60.1877325,24.832678599999998,-2.9971642,-6.5234346,-10.056478,0.2201162,0.143384,-2.0861626e-07,-1.1105534,-2.6008093,-1.2274661,-1.303279,-0.025945434,0.04994766,0.011585729,2.8886285,-5.236019,4.0954556,-1.9607854,0.0036660437,0.15256652,-0.026442554,7.2135896e-05,-9.646487,7.3407564,0.24548039,0.23067416,0.11233624,0.065079145,inf,inf,inf,inf,1,1,1,1,3,2,3,2,3,1,1,1,0,0,0
212542211,212541729,42042859,60.1877325,24.832678599999998,-3.5482986,-7.789841,-10.482931,0.2201162,0.143384,-2.0861626e-07,-1.0007854,-2.415438,-0.6437984,-0.7328545,-0.025945434,0.04994766,0.011585729,-0.9683096,1.8713677,0.03650989,-1.964058,0.003628896,0.15059581,-0.026442554,7.3396695e-05,-9.646487,7.76721,0.24567431,0.23110527,0.10762058,0.06506801,inf,inf,inf,inf,1,1,1,1,3,2,3,2,3,1,1,1,0,0,0
213042456,213041729,42042859,60.1877325,24.832678599999998,-3.9755418,-8.826504,-10.886146,0.2201162,0.143384,-2.0861626e-07,-0.58519703,-1.6291177,-0.62905014,-0.75122726,-0.025945434,0.04994766,0.011585729,0.48590508,0.916267,-1.7550709,-1.9586476,0.003443686,0.15614475,-0.026442554,7.252653e-05,-9.646487,8.170424,0.24600413,0.23121428,0.11784544,0.065077886,inf,inf,inf,inf,1,1,1,1,3,2,3,2,3,1,1,1,0,0,0
213542158,213541729,42042859,60.1877325,24.832678599999998,-4.1862655,-9.468845,-11.233814,0.2201162,0.143384,-2.0861626e-07,-0.23516591,-0.85943824,-0.5563204,-0.6769582,-0.025945434,0.04994766,0.011585729,1.3591027,2.5409708,0.19918333,-1.9390608,0.0025846842,0.18358825,-0.026442554,6.806311e-05,-9.646487,8.518093,0.24660039,0.23158106,0.13500154,0.065256916,inf,inf,inf,inf,1,1,1,1,3,2,3,2,3,1,1,1,0,0,0
214042351,214041729,42042859,60.1877325,24.832678599999998,-4.252638,-9.79361,-11.546968,0.2201162,0.143384,-2.0861626e-07,-0.060953647,-0.363578,-0.5750156,-0.6690399,-0.025945434,0.04994766,0.011585729,0.95496094,0.097738884,1.8724835,-1.9232981,0.001774588,0.20505506,-0.026442554,6.492756e-05,-9.646487,8.831247,0.24702366,0.23246418,0.1322645,0.06537038,inf,inf,inf,inf,1,1,1,1,3,2,3,2,3,1,1,1,0,0,0
214542198,214541729,42042859,60.1877325,24.832678599999998,-4.2315307,-9.889204,-11.856661,0.2201162,0.143384,-2.0861626e-07,0.06566959,-0.055753887,-0.63230604,-0.6918772,-0.025945434,0.04994766,0.011585729,0.94870096,2.0274591,-0.7248009,-1.9182189,0.0013647608,0.21409129,-0.026442554,6.409302e-05,-9.646487,9.14094,0.24835406,0.23325555,0.1264572,0.06555637,inf,inf,inf,inf,1,1,1,1,3,2,3,2,3,1,1,1,0,0,0
215042203,215041730,42042859,60.1877325,24.832678599999998,-4.1973305,-9.889716,-12.160153,0.2201162,0.143384,-2.0861626e-07,0.10206923,-0.022978347,-0.61457884,-0.641263,-0.025945434,0.04994766,0.011585729,0.22317433,0.19161376,4.568369,-1.9222776,0.0011741647,0.20662528,-0.026442554,6.418566e-05,-9.646487,9.444432,0.2504969,0.23444879,0.12111045,0.06583805,inf,inf,inf,inf,1,1,1,1,3,2,3,2,3,1,1,1,0,0,0
215542184,215541729,42042859,60.1877325,24.832678599999998,-4.134263,-9.852908,-12.451718,0.2201162,0.143384,-2.0861626e-07,0.110893674,0.13687265,-0.6428196,-0.6399096,-0.025945434,0.04994766,0.011585729,0.6159536,1.2061151,1.6403457,-1.9394389,0.0010976713,0.1912588,-0.026442554,6.468222e-05,-9.646487,9.735997,0.2535641,0.2366423,0.11898802,0.06633631,inf,inf,inf,inf,1,1,1,1,3,2,3,2,3,1,1,1,0,0,0
216042164,216041729,42042859,60.1877325,24.832678599999998,-4.054567,-9.750177,-12.730542,0.2201162,0.143384,-2.0861626e-07,0.057605617,0.15201922,-0.60013795,-0.58087534,-0.025945434,0.04994766,0.011585729,-0.24264657,-1.5567203,-1.9944596,-1.9684528,0.0010597076,0.16318318,-0.026442554,6.5199114e-05,-9.646487,10.014821,0.25677887,0.2385018,0.11801902,0.06679233,inf,inf,inf,inf,1,1,1,1,3,2,3,2,3,1,1,1,0,0,0
216542194,216541729,42042859,60.1877325,24.832678599999998,-4.015445,-9.726337,-12.972942,0.2201162,0.143384,-2.0861626e-07,-0.071047984,-0.1707096,-0.48563448,-0.45192134,-0.025945434,0.04994766,0.011585729,-0.20824303,-4.906883,-0.38216132,-1.9667058,0.0010487629,0.1667206,-0.026442554,6.53756e-05,-9.646487,10.257221,0.25897402,0.24016318,0.1159422,0.067001455,inf,inf,inf,inf,1,1,1,1,3,2,3,2,3,1,1,1,0,0,0
217042227,217041729,42042859,60.1877325,24.832678599999998,-4.052344,-9.837263,-13.16429,0.2201162,0.143384,-2.0861626e-07,-0.11714629,-0.21887311,-0.5054889,-0.45238805,-0.025945434,0.04994766,0.011585729,1.8450154,1.9640746,2.3433743,-1.9597174,0.00104854,0.17628382,-0.026442554,6.4971e-05,-9.646487,10.448569,0.2586883,0.24098526,0.11339057,0.06672255,inf,inf,inf,inf,1,1,1,1,3,2,3,2,3,1,1,1,0,0,0
217542159,217541729,42042859,60.1877325,24.832678599999998,-4.063718,-9.882544,-13.364113,0.2201162,0.143384,-2.0861626e-07,0.033799198,0.06408057,-0.5448294,-0.46892843,-0.025945434,0.04994766,0.011585729,1.5024469,3.606332,0.672218,-1.9455441,0.0010485149,0.18971154,-0.026442554,6.461222e-05,-9.646487,10.648392,0.2581862,0.24207997,0.111405924,0.06652243,inf,inf,inf,inf,1,1,1,1,3,2,3,2,3,1,1,1,0,0,0
218042208,218041729,42042859,60.1877325,24.832678599999998,-4.121684,-9.936255,-13.579414,0.2201162,0.143384,-2.0861626e-07,-0.22021554,-0.5764937,-0.5775433,-0.49138257,-0.025945434,0.04994766,0.011585729,-0.29458788,-10.208728,-3.94953,-1.9292804,0.001050506,0.21157965,-0.026442554,6.438828e-05,-9.646487,10.863693,0.25780284,0.2422664,0.11068226,0.06629272,inf,inf,inf,inf,1,1,1,1,3,2,3,2,3,1,1,1,0,0,0
218542220,218541729,42042859,60.1877325,24.832678599999998,-4.368073,-10.518696,-13.794937,0.2201162,0.143384,-2.0861626e-07,-0.5870035,-1.5368214,-0.49059263,-0.4202365,-0.025945434,0.04994766,0.011585729,2.2534294,3.1107419,-2.8781648,-1.9458741,0.0009976061,0.18627663,-0.026442554,6.3773e-05,-9.646487,11.079216,0.25745717,0.24226168,0.117637135,0.0662108,inf,inf,inf,inf,1,1,1,1,3,2,3,2,3,1,1,1,0,0,0
219042393,219041729,42042859,60.1877325,24.832678599999998,-4.6417875,-11.250948,-14.053402,0.2201162,0.143384,-2.0861626e-07,-0.49087483,-1.3035972,-0.6012912,-0.5354726,-0.025945434,0.04994766,0.011585729,-1.3179904,-1.2898966,0.6954683,-1.9668262,0.0009074578,0.16264246,-0.026442554,6.3310894e-05,-9.646487,11.337681,0.2572854,0.24278389,0.115058325,0.066236235,inf,inf,inf,inf,1,1,1,1,3,2,3,2,3,1,1,1,0,0,0
219542331,219541729,42042859,60.1877325,24.832678599999998,-4.9065933,-11.87459,-14.248644,0.2201162,0.143384,-2.0861626e-07,-0.48236138,-1.1353018,-0.3437886,-0.28863212,-0.025945434,0.04994766,0.011585729,-4.922085,2.1293824,5.125906,-1.967446,0.0008839313,0.16282117,-0.026442554,6.316426e-05,-9.646487,11.532923,0.25723344,0.24264757,0.11039985,0.06620897,inf,inf,inf,inf,1,1,1,1,3,2,3,2,3,1,1,1,0,0,0
220042326,220041729,42042859,60.1877325,24.832678599999998,-5.1664386,-12.486648,-14.418359,0.2201162,0.143384,-2.0861626e-07,-0.43795535,-1.1758776,-0.290709,-0.25582835,-0.025945434,0.04994766,0.011585729,1.0682104,-3.7249002,-2.0179448,-1.9584693,0.0008803141,0.16920638,-0.026442554,6.32137e-05,-9.646487,11.702638,0.2573516,0.24250746,0.109904766,0.06622748,inf,inf,inf,inf,1,1,1,1,3,2,3,2,3,1,1,1,0,0,0
221042592,221041729,42042859,60.1877325,24.832678599999998,-5.624813,-13.568699,-14.696142,0.2201162,0.143384,-2.0861626e-07,-0.24974135,-0.7096123,-0.36955917,-0.33350593,-0.025945434,0.04994766,0.011585729,-3.7383173,0.09812617,-0.13688523,-1.9615455,0.0008858187,0.16829266,-0.026442554,6.3115134e-05,-9.646487,11.980421,0.25757283,0.24271148,0.10950115,0.066307664,inf,inf,inf,inf,1,1,1,1,3,2,3,2,3,1,1,1,0,0,0
221542561,221541729,42042859,60.1877325,24.832678599999998,-5.735367,-13.835503,-14.814579,0.2201162,0.143384,-2.0861626e-07,-0.07240439,-0.32482946,-0.2926829,-0.24265048,-0.025945434,0.04994766,0.011585729,1.9998628,0.05657879,-1.1343021,-1.922405,0.0008835641,0.20710641,-0.026442554,6.281382e-05,-9.646487,12.098858,0.2574754,0.24239975,0.1100249,0.06621944,inf,inf,inf,inf,1,1,1,1,3,2,3,2,3,1,1,1,0,0,0
222042587,222041729,42042859,60.1877325,24.832678599999998,-5.7658434,-13.907815,-14.926106,0.2201162,0.143384,-2.0861626e-07,0.027924614,-0.09683445,-0.340165,-0.27528715,-0.025945434,0.04994766,0.011585729,0.86511356,-5.2648315,0.96191025,-1.902889,0.0008717118,0.22673966,-0.026442554,6.2578336e-05,-9.646487,12.210385,0.25729167,0.2419607,0.11051618,0.066094115,inf,inf,inf,inf,1,1,1,1,3,2,3,2,3,1,1,1,0,0,0
223042586,223041729,42042859,60.1877325,24.832678599999998,-5.803384,-13.987224,-15.1626625,0.2201162,0.143384,-2.0861626e-07,-0.16174479,-0.13831237,-0.3352015,-0.25409117,-0.025945434,0.04994766,0.011585729,0.48938385,0.20126452,-0.32278913,-1.9566199,0.00086447847,0.17146523,-0.026442554,6.227745e-05,-9.646487,12.446941,0.25680947,0.24143729,0.109030664,0.065803945,inf,inf,inf,inf,1,1,1,1,3,2,3,2,3,1,1,1,0,0,0
223542557,223541729,42042859,60.1877325,24.832678599999998,-5.898656,-14.022019,-15.293719,0.2201162,0.143384,-2.0861626e-07,-0.23197311,-0.102608494,-0.34061983,-0.25870305,-0.025945434,0.04994766,0.011585729,0.8315573,0.023520628,-1.3869869,-1.9321035,0.000868902,0.1975269,-0.026442554,6.217713e-05,-9.646487,12.577998,0.25659862,0.24084422,0.1090722,0.06564461,inf,inf,inf,inf,1,1,1,1,3,2,3,2,3,1,1,1,0,0,0
224042558,224041729,42042859,60.1877325,24.832678599999998,-5.9605994,-14.05228,-15.400702,0.2201162,0.143384,-2.0861626e-07,-0.025743928,-0.07637373,-0.3043001,-0.21939006,-0.025945434,0.04994766,0.011585729,-1.5524479,-3.0005884,-0.39589348,-1.9167295,0.0008743728,0.2131729,-0.026442554,6.2105486e-05,-9.646487,12.684981,0.2563593,0.24079253,0.10866569,0.06554496,inf,inf,inf,inf,1,1,1,1,3,2,3,2,3,1,1,1,0,0,0
224542642,224541729,42042859,60.1877325,24.832678599999998,-5.9369392,-14.052035,-15.536335,0.2201162,0.143384,-2.0861626e-07,0.08835806,-0.008843597,-0.33466616,-0.26071444,-0.025945434,0.04994766,0.011585729,-2.4758234,-0.80321294,1.3058891,-1.9671203,0.0008802443,0.16264507,-0.026442554,6.201605e-05,-9.646487,12.820614,0.25611675,0.2401816,0.108828366,0.06544807,inf,inf,inf,inf,1,1,1,1,3,2,3,2,3,1,1,1,0,0,0
225042591,225041733,42042859,60.1877325,24.832678599999998,-5.9028482,-14.026699,-15.673766,0.2201162,0.143384,-2.0861626e-07,0.053005017,0.06547063,-0.33118126,-0.2641382,-0.025945434,0.04994766,0.011585729,-0.69635147,0.29123563,0.97992086,-2.0010324,0.0008861942,0.12895182,-0.026442554,6.2035135e-05,-9.646487,12.958045,0.25629348,0.23980369,0.10926422,0.065481186,inf,inf,inf,inf,1,1,1,1,3,2,3,2,3,1,1,1,0,0,0
226042327,226041729,42042859,60.1877325,24.832678599999998,-5.8570037,-13.979053,-15.930897,0.2201162,0.143384,-2.0861626e-07,-0.07582978,0.085008696,-0.22311005,-0.17477989,-0.025945434,0.04994766,0.011585729,-0.6012211,0.6943722,0.27364475,-1.9625763,0.00089910236,0.16660929,-0.026442554,6.188611e-05,-9.646487,13.215176,0.25611538,0.23947836,0.109098636,0.06541335,inf,inf,inf,inf,1,1,1,1,3,2,3,2,3,1,1,1,0,0,0
226542594,226541729,42042859,60.1877325,24.832678599999998,-5.915428,-13.924169,-16.063002,0.2201162,0.143384,-2.0861626e-07,-0.111450575,0.12591664,-0.23009336,-0.19424656,-0.025945434,0.04994766,0.011585729,-3.7277653,-3.12194,-0.45547652,-1.9437263,0.0009049737,0.18524624,-0.026442554,6.182344e-05,-9.646487,13.3472805,0.25602907,0.23907305,0.10906504,0.0653831,inf,inf,inf,inf,1,1,1,1,3,2,3,2,3,1,1,1,0,0,0
227042612,227041729,42042859,60.1877325,24.832678599999998,-5.9707904,-13.876881,-16.167856,0.2201162,0.143384,-2.0861626e-07,-0.071315646,0.061115813,-0.13033612,-0.10177295,-0.025945434,0.04994766,0.011585729,0.34482068,-0.44974735,-0.026497435,-1.9682862,0.0009109076,0.16186485,-0.026442554,6.180419e-05,-9.646487,13.452135,0.25603634,0.23872334,0.108775996,0.06537724,inf,inf,inf,inf,1,1,1,1,3,2,3,2,3,1,1,1,0,0,0
227542561,227541729,42042859,60.1877325,24.832678599999998,-5.9937143,-13.853667,-16.280771,0.2201162,0.143384,-2.0861626e-07,-0.04352361,0.016054422,-0.2224347,-0.20539826,-0.025945434,0.04994766,0.011585729,-0.5934358,-2.1462047,0.31725842,-2.00277,0.0009168115,0.12669562,-0.026442554,6.1793835e-05,-9.646487,13.56505,0.25597665,0.2388899,0.10888582,0.06542438,inf,inf,inf,inf,1,1,1,1,3,2,3,2,3,1,1,1,0,0,0
228042557,228041729,42042859,60.1877325,24.832678599999998,-6.036087,-13.869053,-16.420345,0.2201162,0.143384,-2.0861626e-07,-0.04676091,-0.040791914,-0.21139865,-0.1972331,-0.025945434,0.04994766,0.011585729,-1.7544826,-2.241623,-0.12322981,-1.9834476,0.0009226426,0.14695828,-0.026442554,6.168058e-05,-9.646487,13.704624,0.25589713,0.23845682,0.109049864,0.06544974,inf,inf,inf,inf,1,1,1,1,3,2,3,2,3,1,1,1,0,0,0
228542619,228541732,42042859,60.1877325,24.832678599999998,-6.0027413,-13.942996,-16.54529,0.2201162,0.143384,-2.0861626e-07,0.25585267,-0.14929833,-0.20607096,-0.18811835,-0.025945434,0.04994766,0.011585729,3.29561,-1.932481,2.383443,-1.9054784,0.0009276539,0.22220518,-0.026442554,6.156835e-05,-9.646487,13.829569,0.25575405,0.2379769,0.10920018,0.06542383,inf,inf,inf,inf,1,1,1,1,3,2,3,2,3,1,1,1,0,0,0
229042378,229041729,42042859,60.1877325,24.832678599999998,-5.917446,-14.042097,-16.652822,0.2201162,0.143384,-2.0861626e-07,0.0846918,-0.106429845,-0.16500017,-0.13965106,-0.025945434,0.04994766,0.011585729,-3.5135264,-1.0927259,1.2537947,-1.9442722,0.00093119656,0.18284868,-0.026442554,6.148339e-05,-9.646487,13.937101,0.25555906,0.23800665,0.10888732,0.06542719,inf,inf,inf,inf,1,1,1,1,3,2,3,2,3,1,1,1,0,0,0
229542349,229541729,42042859,60.1877325,24.832678599999998,-5.9100914,-14.105623,-16.759733,0.2201162,0.143384,-2.0861626e-07,0.049371287,-0.03959597,-0.19670415,-0.17554125,-0.025945434,0.04994766,0.011585729,0.85973155,-1.5407659,-0.29318872,-1.9264072,0.0009386749,0.20146494,-0.026442554,6.1455e-05,-9.646487,14.044012,0.25533405,0.23746686,0.10864125,0.06541271,inf,inf,inf,inf,1,1,1,1,3,2,3,2,3,1,1,1,0,0,0
230042346,230041729,42042859,60.1877325,24.832678599999998,-5.8933816,-14.147178,-16.883505,0.2201162,0.143384,-2.0861626e-07,0.061443463,-0.0018269492,-0.20034283,-0.1817367,-0.025945434,0.04994766,0.011585729,-1.6833482,-0.33911216,0.5844204,-1.9403707,0.00094729965,0.18726401,-0.026442554,6.139489e-05,-9.646487,14.167784,0.2550948,0.23691931,0.1086787,0.0653835,inf,inf,inf,inf,1,1,1,1,3,2,3,2,3,1,1,1,0,0,0
230542378,230541729,42042859,60.1877325,24.832678599999998,-5.88117,-14.178415,-17.000437,0.2201162,0.143384,-2.0861626e-07,0.04808122,-0.013258196,-0.29968488,-0.28638944,-0.025945434,0.04994766,0.011585729,-0.9781937,1.2679114,0.029516775,-1.9582256,0.0009562886,0.16953069,-0.026442554,6.136813e-05,-9.646487,14.284716,0.25485557,0.2369127,0.10848987,0.06539822,inf,inf,inf,inf,1,1,1,1,3,2,3,2,3,1,1,1,0,0,0
231042452,231041729,42042859,60.1877325,24.832678599999998,-5.862134,-14.17509,-17.172874,0.2201162,0.143384,-2.0861626e-07,0.081208274,0.034943264,-0.3004726,-0.289487,-0.025945434,0.04994766,0.011585729,1.101342,-1.2850066,-0.39551127,-1.9545405,0.0009654871,0.17324501,-0.026442554,6.122858e-05,-9.646487,14.457153,0.2545813,0.23636414,0.10884399,0.065347515,inf,inf,inf,inf,1,1,1,1,3,2,3,2,3,1,1,1,0,0,0
231542347,231541729,42042859,60.1877325,24.832678599999998,-5.827583,-14.156315,-17.32554,0.2201162,0.143384,-2.0861626e-07,0.079372585,-0.018232347,-0.32727465,-0.3142385,-0.025945434,0.04994766,0.011585729,2.5989623,-1.1839647,-1.3749855,-1.9648318,0.0009747763,0.16209732,-0.026442554,6.115511e-05,-9.646487,14.609819,0.25429916,0.23581451,0.10857132,0.065286905,inf,inf,inf,inf,1,1,1,1,3,2,3,2,3,1,1,1,0,0,0
232042420,232041729,42042859,60.1877325,24.832678599999998,-5.796215,-14.174056,-17.47498,0.2201162,0.143384,-2.0861626e-07,0.102155335,-0.049756207,-0.2917964,-0.27959394,-0.025945434,0.04994766,0.011585729,1.3395969,-0.9869719,3.3055816,-1.959341,0.0009842765,0.16770962,-0.026442554,6.110569e-05,-9.646487,14.759258,0.25401127,0.23526481,0.1084836,0.06521189,inf,inf,inf,inf,1,1,1,1,3,2,3,2,3,1,1,1,0,0,0
232542380,232541729,42042859,60.1877325,24.832678599999998,-5.768217,-14.170643,-17.619284,0.2201162,0.143384,-2.0861626e-07,0.08270566,0.016967285,-0.25851002,-0.25167912,-0.025945434,0.04994766,0.011585729,-0.7291582,-1.9194921,-2.387605,-1.931443,0.0009939923,0.19571476,-0.026442554,6.109671e-05,-9.646487,14.903563,0.25372824,0.23523933,0.10835883,0.06519102,inf,inf,inf,inf,1,1,1,1,3,2,3,2,3,1,1,1,0,0,0
233042198,233041729,42042859,60.1877325,24.832678599999998,-5.7682376,-14.143542,-17.749916,0.2201162,0.143384,-2.0861626e-07,-0.08652229,0.07951787,-0.21663536,-0.21596539,-0.025945434,0.04994766,0.011585729,0.5960398,1.4839481,2.0468762,-1.9562055,0.0010039693,0.16975468,-0.026442554,6.1134575e-05,-9.646487,15.034195,0.2534806,0.23470129,0.10839943,0.0651537,inf,inf,inf,inf,1,1,1,1,3,2,3,2,3,1,1,1,0,0,0
233542380,233541730,42042859,60.1877325,24.832678599999998,-5.854055,-14.099592,-17.86427,0.2201162,0.143384,-2.0861626e-07,-0.17418133,0.13947918,-0.16609778,-0.16315158,-0.025945434,0.04994766,0.011585729,-2.668094,3.837079,1.4526657,-1.9983187,0.0010125116,0.12906136,-0.026442554,6.121167e-05,-9.646487,15.148548,0.25320154,0.23416062,0.10850749,0.0651312,inf,inf,inf,inf,1,1,1,1,3,2,3,2,3,1,1,1,0,0,0
235042379,235041729,42042859,60.1877325,24.832678599999998,-5.932703,-14.013341,-18.194857,0.2201162,0.143384,-2.0861626e-07,0.21269366,-0.017729225,-0.20130801,-0.18778518,-0.025945434,0.04994766,0.011585729,-0.82685614,-2.1311002,-0.6314205,-1.9259825,0.001039507,0.20237723,-0.026442554,6.117728e-05,-9.646487,15.4791355,0.252429,0.23313083,0.10833879,0.06507863,inf,inf,inf,inf,1,1,1,1,3,2,3,2,3,1,1,1,0,0,0
235542440,235541729,42042859,60.1877325,24.832678599999998,-5.8458943,-13.998745,-18.28518,0.2201162,0.143384,-2.0861626e-07,0.13305724,-0.04724923,-0.23542832,-0.22977819,-0.025945434,0.04994766,0.011585729,1.2095565,1.4883499,-2.204598,-1.9429824,0.0010470883,0.18402532,-0.026442554,6.120389e-05,-9.646487,15.569458,0.25218186,0.23314199,0.10832483,0.06507926,inf,inf,inf,inf,1,1,1,1,3,2,3,2,3,1,1,1,0,0,0
236042351,236041729,42042859,60.1877325,24.832678599999998,-5.8233438,-14.060689,-18.4154,0.2201162,0.143384,-2.0861626e-07,0.09616501,-0.17142814,-0.2508467,-0.25187245,-0.025945434,0.04994766,0.011585729,-0.20491654,0.98071754,0.9206139,-1.8965425,0.0010565511,0.23203512,-0.026442554,6.1168204e-05,-9.646487,15.699678,0.25199068,0.23266834,0.10846151,0.06504462,inf,inf,inf,inf,1,1,1,1,3,2,3,2,3,1,1,1,0,0,0
236542356,236541729,42042859,60.1877325,24.832678599999998,-5.785011,-14.128565,-18.53775,0.2201162,0.143384,-2.0861626e-07,0.03955187,-0.092178814,-0.23181474,-0.23437962,-0.025945434,0.04994766,0.011585729,-1.3246144,-2.4334733,2.183061,-1.9433435,0.0010661539,0.18369927,-0.026442554,6.111079e-05,-9.646487,15.822029,0.25173935,0.23216847,0.10823478,0.06497472,inf,inf,inf,inf,1,1,1,1,3,2,3,2,3,1,1,1,0,0,0
237042434,237041729,42042859,60.1877325,24.832678599999998,-5.782539,-14.159364,-18.674574,0.2201162,0.143384,-2.0861626e-07,0.076497786,-0.05862725,-0.26256663,-0.27022746,-0.025945434,0.04994766,0.011585729,2.6554828,-0.60699713,-0.48542562,-1.9537817,0.0010771776,0.17425151,-0.026442554,6.107542e-05,-9.646487,15.958853,0.25146642,0.23165365,0.10823103,0.06491956,inf,inf,inf,inf,1,1,1,1,3,2,3,2,3,1,1,1,0,0,0
237542444,237541729,42042859,60.1877325,24.832678599999998,-5.7586813,-14.202903,-18.815346,0.2201162,0.143384,-2.0861626e-07,0.032936405,-0.09749752,-0.27712232,-0.28480577,-0.025945434,0.04994766,0.011585729,-0.047254473,0.8516792,-0.060823753,-1.9339944,0.0010883813,0.1927962,-0.026442554,6.1035964e-05,-9.646487,16.099625,0.25118986,0.2316362,0.10842228,0.06490189,inf,inf,inf,inf,1,1,1,1,3,2,3,2,3,1,1,1,0,0,0
238042354,238041729,42042859,60.1877325,24.832678599999998,-5.753406,-14.242882,-18.952854,0.2201162,0.143384,-2.0861626e-07,0.01911262,-0.076718524,-0.2896998,-0.28866655,-0.025945434,0.04994766,0.011585729,-0.11432992,-1.4677525,-0.056453988,-1.9034549,0.0010998466,0.22335126,-0.026442554,6.100833e-05,-9.646487,16.237133,0.25094026,0.23111027,0.10839408,0.06484831,inf,inf,inf,inf,1,1,1,1,3,2,3,2,3,1,1,1,0,0,0
238542429,238541729,42042859,60.1877325,24.832678599999998,-5.7678876,-14.252695,-19.091604,0.2201162,0.143384,-2.0861626e-07,-0.06826691,0.027464928,-0.33548227,-0.3240212,-0.025945434,0.04994766,0.011585729,0.36342368,0.5631712,-1.397902,-1.9129277,0.0011115008,0.21386604,-0.026442554,6.0965966e-05,-9.646487,16.375883,0.25066048,0.23056784,0.108397104,0.06479402,inf,inf,inf,inf,1,1,1,1,3,2,3,2,3,1,1,1,0,0,0
239042380,239041729,42042859,60.1877325,24.832678599999998,-5.8077416,-14.203568,-19.212564,0.2201162,0.143384,-2.0861626e-07,-0.063167796,0.161484,-0.2275289,-0.21349722,-0.025945434,0.04994766,0.011585729,-0.60785,0.88970906,1.9473059,-1.927321,0.0011219361,0.19938187,-0.026442554,6.0951737e-05,-9.646487,16.496843,0.25035414,0.23051521,0.108198136,0.06481586,inf,inf,inf,inf,1,1,1,1,3,2,3,2,3,1,1,1,0,0,0
239542447,239541729,42042859,60.1877325,24.832678599999998,-5.768566,-14.137137,-19.185463,0.2201162,0.143384,-2.0861626e-07,0.45002607,0.08510675,0.51921076,0.533285,-0.025945434,0.04994766,0.011585729,2.3392758,-0.73208106,0.46344978,-1.9416419,0.0011314643,0.18064865,-0.026442554,6.108204e-05,-9.646487,16.469742,0.2500877,0.22998567,0.10724372,0.06478515,inf,inf,inf,inf,1,1,1,1,3,2,3,2,3,1,1,1,0,0,0
240042347,240041729,42042859,60.1877325,24.832678599999998,-5.2480993,-14.135611,-18.934135,0.2201162,0.143384,-2.0861626e-07,1.4788547,-0.031837337,0.44678614,0.4405277,-0.025945434,0.04994766,0.011585729,0.5151592,-3.0168452,3.6613238,-1.9811805,0.0011063738,0.14959273,-0.026442554,6.161859e-05,-9.646487,16.218414,0.24975505,0.22946292,0.11166735,0.064881206,inf,inf,inf,inf,1,1,1,1,3,2,3,2,3,1,1,1,0,0,0
240542347,240541729,42042859,60.1877325,24.832678599999998,-4.432673,-14.162573,-18.772434,0.2201162,0.143384,-2.0861626e-07,1.6787553,-0.07014165,0.24679272,0.2443907,-0.025945434,0.04994766,0.011585729,-0.4918675,0.009498004,1.1011025,-1.9883043,0.0010325704,0.14211096,-0.026442554,6.1954255e-05,-9.646487,16.056713,0.24942558,0.22943136,0.113050014,0.06497479,inf,inf,inf,inf,1,1,1,1,3,2,3,2,3,1,1,1,0,0,0
241042381,241041729,42042859,60.1877325,24.832678599999998,-3.636662,-14.207684,-18.654894,0.2201162,0.143384,-2.0861626e-07,1.3913502,-0.07759067,0.08767438,0.11610571,-0.025945434,0.04994766,0.011585729,-0.4263792,0.2495468,0.3321102,-1.9793546,0.0010019112,0.1478521,-0.026442554,6.206711e-05,-9.646487,15.939173,0.24912527,0.22892526,0.109864675,0.064917594,inf,inf,inf,inf,1,1,1,1,3,2,3,2,3,1,1,1,0,0,0
241542382,241541729,42042859,60.1877325,24.832678599999998,-3.0473182,-14.234832,-18.584368,0.2201162,0.143384,-2.0861626e-07,0.9067553,-0.041317593,-0.0065482007,0.049957335,-0.025945434,0.04994766,0.011585729,0.6491629,0.56533396,-0.49891862,-1.9656986,0.0010066612,0.1597946,-0.026442554,6.183633e-05,-9.646487,15.868647,0.24881738,0.22841758,0.10871571,0.06484573,inf,inf,inf,inf,1,1,1,1,3,2,3,2,3,1,1,1,0,0,0
242042346,242041729,42042859,60.1877325,24.832678599999998,-2.707785,-14.23778,-18.564882,0.2201162,0.143384,-2.0861626e-07,0.4358524,0.005379705,-0.08613235,-0.017997947,-0.025945434,0.04994766,0.011585729,-1.1038316,-0.045746725,-0.11370052,-1.9470192,0.0010060482,0.17807256,-0.026442554,6.133386e-05,-9.646487,15.849161,0.2484787,0.22838926,0.11021461,0.06486021,inf,inf,inf,inf,1,1,1,1,3,2,3,2,3,1,1,1,0,0,0
242542345,242541729,42042859,60.1877325,24.832678599999998,-2.60002,-14.219033,-18.559992,0.2201162,0.143384,-2.0861626e-07,0.05776973,-0.0033343516,-0.074293405,-0.006320347,-0.025945434,0.04994766,0.011585729,-1.3437984,-1.3574355,-0.0055598128,-1.9314524,0.0009849076,0.19683816,-0.026442554,6.0857645e-05,-9.646487,15.844271,0.24812554,0.22786832,0.11148764,0.06482805,inf,inf,inf,inf,1,1,1,1,3,2,3,2,3,1,1,1,0,0,0
243042388,243041729,42042859,60.1877325,24.832678599999998,-2.6533585,-14.219641,-18.572836,0.2201162,0.143384,-2.0861626e-07,-0.18007742,-0.021930797,-0.105435126,-0.04461873,-0.025945434,0.04994766,0.011585729,-1.5619109,0.9709987,-0.83643293,-1.956149,0.0009568952,0.17399518,-0.026442554,6.0605293e-05,-9.646487,15.857115,0.2477678,0.22734015,0.11134389,0.06478199,inf,inf,inf,inf,1,1,1,1,3,2,3,2,3,1,1,1,0,0,0
243542423,243541729,42042859,60.1877325,24.832678599999998,-2.997727,-14.216646,-18.62877,0.2201162,0.143384,-2.0861626e-07,-1.2603974,-0.021997772,-0.14126395,-0.085806035,-0.025945434,0.04994766,0.011585729,-2.0743895,0.669192,2.9196982,-1.9477309,0.00092483027,0.16292533,-0.026442554,6.052372e-05,-9.646487,15.91305,0.24743426,0.22681358,0.11357622,0.064801216,inf,inf,inf,inf,1,1,1,1,3,2,3,2,3,1,1,1,0,0,0
244042393,244041729,42042859,60.1877325,24.832678599999998,-3.8390791,-14.218633,-18.662115,0.2201162,0.143384,-2.0861626e-07,-1.8289545,-0.0013260164,-0.14536417,-0.092028946,-0.025945434,0.04994766,0.011585729,-1.88828,0.9966433,-2.6255126,-1.9389216,0.0008368575,0.19131057,-0.026442554,6.093365e-05,-9.646487,15.946394,0.24716341,0.2267661,0.116866834,0.06493932,inf,inf,inf,inf,1,1,1,1,3,2,3,2,3,1,1,1,0,0,0
244542349,244541729,42042859,60.1877325,24.832678599999998,-4.752036,-14.2088785,-18.709248,0.2201162,0.143384,-2.0861626e-07,-1.6142386,0.042934198,-0.10098839,-0.055987157,-0.025945434,0.04994766,0.011585729,0.014241759,2.7179594,-0.9626703,-1.9433917,0.0007876537,0.18945679,-0.026442554,6.153526e-05,-9.646487,15.993526,0.24693745,0.22625266,0.11143362,0.06477851,inf,inf,inf,inf,1,1,1,1,3,2,3,2,3,1,1,1,0,0,0
245042462,245041729,42042859,60.1877325,24.832678599999998,-5.463199,-14.179759,-18.72671,0.2201162,0.143384,-2.0861626e-07,-1.0468627,0.04372312,-0.038757674,-0.0019652033,-0.025945434,0.04994766,0.011585729,2.2399673,-2.7818608,-0.6134795,-1.9348757,0.0007891551,0.1987031,-0.026442554,6.1876395e-05,-9.646487,16.010988,0.2466924,0.22573178,0.10797988,0.06459077,inf,inf,inf,inf,1,1,1,1,3,2,3,2,3,1,1,1,0,0,0
245542381,245541729,42042859,60.1877325,24.832678599999998,-5.857791,-14.144883,-18.729788,0.2201162,0.143384,-2.0861626e-07,-0.4630536,0.016060794,-0.03592106,0.0002795095,-0.025945434,0.04994766,0.011585729,1.2885019,-0.18359952,0.047575492,-1.9489774,0.0007943083,0.18446057,-0.026442554,6.169987e-05,-9.646487,16.014067,0.24638046,0.22566456,0.109250255,0.064563274,inf,inf,inf,inf,1,1,1,1,3,2,3,2,3,1,1,1,0,0,0
246042369,246041729,42042859,60.1877325,24.832678599999998,-5.982319,-14.138804,-18.72396,0.2201162,0.143384,-2.0861626e-07,-0.05095942,-0.047186222,-0.035869204,0.003038217,-0.025945434,0.04994766,0.011585729,1.4756867,-0.47684833,-1.2368077,-1.9637728,0.00077781826,0.16869755,-0.026442554,6.118918e-05,-9.646487,16.00824,0.24604964,0.22514021,0.11117311,0.06454747,inf,inf,inf,inf,1,1,1,1,3,2,3,2,3,1,1,1,0,0,0
246542345,246541729,42042859,60.1877325,24.832678599999998,-5.932211,-14.17708,-18.721409,0.2201162,0.143384,-2.0861626e-07,0.25988021,-0.09323092,-0.010394322,0.02924641,-0.025945434,0.04994766,0.011585729,-0.1639526,1.3500459,-3.0069227,-1.9632488,0.0007501102,0.16900373,-0.026442554,6.0711318e-05,-9.646487,16.005688,0.24574997,0.22463638,0.111703515,0.064528964,inf,inf,inf,inf,1,1,1,1,3,2,3,2,3,1,1,1,0,0,0
247042379,247041729,42042859,60.1877325,24.832678599999998,-5.4886703,-14.246808,-18.737926,0.2201162,0.143384,-2.0861626e-07,1.4478153,-0.11347496,-0.09035693,-0.05060316,-0.025945434,0.04994766,0.011585729,2.613306,-0.4663244,-1.2657719,-1.9785585,0.00070855767,0.15519662,-0.026442554,6.0291757e-05,-9.646487,16.022205,0.24549171,0.22460638,0.115773425,0.06465745,inf,inf,inf,inf,1,1,1,1,3,2,3,2,3,1,1,1,0,0,0
248042163,248041729,42042859,60.1877325,24.832678599999998,-3.9933772,-14.350014,-18.987036,0.2201162,0.143384,-2.0861626e-07,0.9116942,-0.013076941,-0.4590634,-0.41603687,-0.025945434,0.04994766,0.011585729,-1.472454,-0.94120985,0.37567896,-1.980675,0.00061624584,0.15659188,-0.026442554,5.9888444e-05,-9.646487,16.271315,0.24515058,0.2237213,0.11005374,0.06453729,inf,inf,inf,inf,1,1,1,1,3,2,3,2,3,1,1,1,0,0,0
248542384,248541729,42042859,60.1877325,24.832678599999998,-3.6912982,-14.347094,-19.222773,0.2201162,0.143384,-2.0861626e-07,0.13610765,0.06526397,-0.5329647,-0.49258858,-0.025945434,0.04994766,0.011585729,1.0538968,-0.65480685,1.1329687,-1.9756101,0.0006213173,0.1616844,-0.026442554,5.9568076e-05,-9.646487,16.507051,0.24494371,0.22328876,0.10890251,0.06445315,inf,inf,inf,inf,1,1,1,1,3,2,3,2,3,1,1,1,0,0,0
249042381,249041729,42042859,60.1877325,24.832678599999998,-3.7508945,-14.3202915,-19.48455,0.2201162,0.143384,-2.0861626e-07,-0.48332044,0.06338744,-0.5904966,-0.5537122,-0.025945434,0.04994766,0.011585729,-0.5144632,-0.099817604,-0.20534042,-1.9373323,0.00061866577,0.20131363,-0.026442554,5.9245707e-05,-9.646487,16.76883,0.24470966,0.22331113,0.11041485,0.06451551,inf,inf,inf,inf,1,1,1,1,3,2,3,2,3,1,1,1,0,0,0
249542383,249541729,42042859,60.1877325,24.832678599999998,-4.0990605,-14.30202,-19.771555,0.2201162,0.143384,-2.0861626e-07,-0.9150039,0.08376046,-0.5815617,-0.554191,-0.025945434,0.04994766,0.011585729,-1.45415,-0.008582578,0.95887685,-1.933008,0.00060512486,0.20610675,-0.026442554,5.9091468e-05,-9.646487,17.055834,0.24448425,0.22289704,0.111106984,0.0645291,inf,inf,inf,inf,1,1,1,1,3,2,3,2,3,1,1,1,0,0,0
250042345,250041729,42042859,60.1877325,24.832678599999998,-4.616462,-14.2694,-20.05776,0.2201162,0.143384,-2.0861626e-07,-1.1017253,0.13030453,-0.57402325,-0.55567896,-0.025945434,0.04994766,0.011585729,1.474118,-0.8081208,-0.15858728,-1.9390985,0.0005914804,0.2002534,-0.026442554,5.9194655e-05,-9.646487,17.34204,0.24431741,0.22250335,0.1104302,0.06450807,inf,inf,inf,inf,1,1,1,1,3,2,3,2,3,1,1,1,0,0,0
250542411,250541729,42042859,60.1877325,24.832678599999998,-5.1693892,-14.194325,-20.311659,0.2201162,0.143384,-2.0861626e-07,-0.9790251,0.17597255,-0.38784435,-0.38070813,-0.025945434,0.04994766,0.011585729,1.5239062,-1.5352772,0.42798576,-1.9286743,0.00058721146,0.21145508,-0.026442554,5.946948e-05,-9.646487,17.595938,0.24418014,0.22256054,0.108587384,0.06447468,inf,inf,inf,inf,1,1,1,1,3,2,3,2,3,1,1,1,0,0,0
251042379,251041729,42042859,60.1877325,24.832678599999998,-5.612139,-14.122801,-20.469688,0.2201162,0.143384,-2.0861626e-07,-0.63589525,0.12773935,-0.16336928,-0.17434269,-0.025945434,0.04994766,0.011585729,-0.19682057,-2.1464674,0.07606949,-1.9331903,0.00059326144,0.20718913,-0.026442554,5.9876038e-05,-9.646487,17.753967,0.2440372,0.22217599,0.107104994,0.064396426,inf,inf,inf,inf,1,1,1,1,3,2,3,2,3,1,1,1,0,0,0
251542430,251541729,42042859,60.1877325,24.832678599999998,-5.8434205,-14.069818,-20.545527,0.2201162,0.143384,-2.0861626e-07,-0.21982583,0.10351425,-0.04406645,-0.06796976,-0.025945434,0.04994766,0.011585729,2.5929482,1.8853204,-0.55210537,-1.9398245,0.00060085306,0.20004459,-0.026442554,6.0256345e-05,-9.646487,17.829805,0.24387842,0.22181846,0.107328236,0.064350784,inf,inf,inf,inf,1,1,1,1,3,2,3,2,3,1,1,1,0,0,0
252042350,252041728,42042859,60.1877325,24.832678599999998,-5.8972764,-14.043859,-20.567999,0.2201162,0.143384,-2.0861626e-07,0.033800166,0.060899943,-0.013832056,-0.034729876,-0.025945434,0.04994766,0.011585729,1.2008797,-2.5704494,1.3508488,-1.948194,0.00060362625,0.19148967,-0.026442554,6.054111e-05,-9.646487,17.852278,0.2437424,0.2219285,0.10812076,0.06438714,inf,inf,inf,inf,1,1,1,1,3,2,3,2,3,1,1,1,0,0,0
252542347,252541729,42042859,60.1877325,24.832678599999998,-5.86691,-14.042202,-20.575443,0.2201162,0.143384,-2.0861626e-07,0.087000445,0.017500049,-0.01589651,-0.02119191,-0.025945434,0.04994766,0.011585729,2.4216,3.7790022,-2.8766627,-1.97305,0.0006037602,0.16630244,-0.026442554,6.071599e-05,-9.646487,17.859722,0.24362893,0.22162423,0.108390234,0.06437987,inf,inf,inf,inf,1,1,1,1,3,2,3,2,3,1,1,1,0,0,0
253042413,253041729,42042859,60.1877325,24.832678599999998,-5.8073072,-14.0611105,-20.55129,0.2201162,0.143384,-2.0861626e-07,0.1446551,-0.048070528,0.04679496,0.06532948,-0.025945434,0.04994766,0.011585729,1.4000269,-2.9918697,4.1292973,-1.9735247,0.0006061438,0.1661815,-0.026442554,6.0852042e-05,-9.646487,17.83557,0.2435785,0.22136062,0.108218916,0.06437818,inf,inf,inf,inf,1,1,1,1,3,2,3,2,3,1,1,1,0,0,0
253542442,253541729,42042859,60.1877325,24.832678599999998,-5.6164846,-14.116001,-20.280455,0.2201162,0.143384,-2.0861626e-07,0.5467028,-0.114592746,0.6695922,0.70427954,-0.025945434,0.04994766,0.011585729,1.6589601,1.7484949,-2.0280392,-1.9657103,0.0006084258,0.17654094,-0.026442554,6.121243e-05,-9.646487,17.564734,0.24356641,0.22113279,0.10724891,0.064399794,inf,inf,inf,inf,1,1,1,1,3,2,3,2,3,1,1,1,0,0,0
254042160,254041729,42042859,60.1877325,24.832678599999998,-5.2975807,-14.180247,-19.916327,0.2201162,0.143384,-2.0861626e-07,0.6142448,-0.092760675,0.7004029,0.73222846,-0.025945434,0.04994766,0.011585729,-2.4368067,-1.0842044,0.9218087,-1.9278312,0.0006070149,0.21220095,-0.026442554,6.1773e-05,-9.646487,17.200605,0.24358308,0.22139858,0.10776606,0.06446039,inf,inf,inf,inf,1,1,1,1,3,2,3,2,3,1,1,1,0,0,0
254542345,254541729,42042859,60.1877325,24.832678599999998,-5.0447216,-14.202469,-19.548765,0.2201162,0.143384,-2.0861626e-07,0.27728248,0.0008661091,0.69429594,0.7334288,-0.025945434,0.04994766,0.011585729,-0.2528868,2.1374142,-0.49907434,-1.935021,0.0006106538,0.20189695,-0.026442554,6.2108345e-05,-9.646487,16.833044,0.24364792,0.22126621,0.10748582,0.06442028,inf,inf,inf,inf,1,1,1,1,3,2,3,2,3,1,1,1,0,0,0
255042228,255041729,42042859,60.1877325,24.832678599999998,-4.992101,-14.1828785,-19.177979,0.2201162,0.143384,-2.0861626e-07,-0.17257723,0.07280861,0.5586144,0.6167837,-0.025945434,0.04994766,0.011585729,-3.6470733,0.77296484,-2.786016,-1.9546224,0.00061788684,0.18371524,-0.026442554,6.2248815e-05,-9.646487,16.462257,0.24383175,0.22120738,0.10808106,0.06442075,inf,inf,inf,inf,1,1,1,1,3,2,3,2,3,1,1,1,0,0,0
255542190,255541729,42042859,60.1877325,24.832678599999998,-5.1244287,-14.146765,-18.918482,0.2201162,0.143384,-2.0861626e-07,-0.42366213,0.08868758,0.24802387,0.33151352,-0.025945434,0.04994766,0.011585729,-2.4766164,-0.1017453,2.319034,-1.979482,0.00062155153,0.16300887,-0.026442554,6.203848e-05,-9.646487,16.20276,0.24403524,0.22163275,0.10960348,0.06449466,inf,inf,inf,inf,1,1,1,1,3,2,3,2,3,1,1,1,0,0,0
256042351,256041729,42042859,60.1877325,24.832678599999998,-5.2771153,-14.096413,-18.758186,0.2201162,0.143384,-2.0861626e-07,-0.37325227,0.04198061,0.057227153,0.17165697,-0.025945434,0.04994766,0.011585729,2.3343694,-3.090783,2.145349,-1.9919145,0.0006248096,0.15360026,-0.026442554,6.158065e-05,-9.646487,16.042465,0.2444408,0.22170831,0.10985603,0.064491935,inf,inf,inf,inf,1,1,1,1,3,2,3,2,3,1,1,1,0,0,0
256542157,256541729,42042859,60.1877325,24.832678599999998,-5.397337,-14.11421,-18.67369,0.2201162,0.143384,-2.0861626e-07,-0.31248692,-0.059974235,-0.08366192,0.053417232,-0.025945434,0.04994766,0.011585729,-1.7393613,0.08508571,-0.64392006,-1.9686966,0.0006314373,0.17529114,-0.026442554,6.120265e-05,-9.646487,15.95797,0.24564756,0.22207975,0.1104663,0.06463779,inf,inf,inf,inf,1,1,1,1,3,2,3,2,3,1,1,1,0,0,0
257542378,257541729,42042859,60.1877325,24.832678599999998,-5.6157517,-14.166905,-18.625986,0.2201162,0.143384,-2.0861626e-07,-0.1267011,-0.001591968,-0.062391892,0.0612598,-0.025945434,0.04994766,0.011585729,1.7319725,-0.108766,-0.034845065,-1.9286575,0.000648446,0.21584561,-0.026442554,6.056237e-05,-9.646487,15.910265,0.24968168,0.22399671,0.11143771,0.065166034,inf,inf,inf,inf,1,1,1,1,3,2,3,2,3,1,1,1,0,0,0
258042385,258041729,42042859,60.1877325,24.832678599999998,-5.656971,-14.156753,-18.653534,0.2201162,0.143384,-2.0861626e-07,0.07430975,0.051379263,-0.5572005,-0.44649652,-0.025945434,0.04994766,0.011585729,7.1139493,4.900203,-3.422786,-1.9321467,0.0006567742,0.21297835,-0.026442554,6.0101513e-05,-9.646487,15.937813,0.24967943,0.22402203,0.1101613,0.06496661,inf,inf,inf,inf,1,1,1,1,3,2,3,2,3,1,1,1,0,0,0
258542191,258541729,42042859,60.1877325,24.832678599999998,-5.5720816,-14.064282,-18.893414,0.2201162,0.143384,-2.0861626e-07,0.27329963,0.2797887,-0.49516845,-0.37996277,-0.025945434,0.04994766,0.011585729,-0.67728025,-1.7066834,-0.041540157,-1.9569982,0.000662039,0.18903887,-0.026442554,5.9323924e-05,-9.646487,16.177692,0.24974075,0.22407459,0.11097588,0.06485685,inf,inf,inf,inf,1,1,1,1,3,2,3,2,3,1,1,1,0,0,0
259042385,259041729,42042859,60.1877325,24.832678599999998,-5.450016,-13.841947,-19.003624,0.2201162,0.143384,-2.0861626e-07,0.28755718,0.5723868,-0.23043989,-0.12320202,-0.025945434,0.04994766,0.011585729,1.6558604,3.1474576,-0.66073334,-1.9605671,0.0006643851,0.18502724,-0.026442554,5.9029953e-05,-9.646487,16.287903,0.24971099,0.22454935,0.10916039,0.06479263,inf,inf,inf,inf,1,1,1,1,3,2,3,2,3,1,1,1,0,0,0
259542383,259541729,42042859,60.1877325,24.832678599999998,-5.3267136,-13.479318,-19.057356,0.2201162,0.143384,-2.0861626e-07,0.17585252,0.78697044,-0.034214754,0.039809756,-0.025945434,0.04994766,0.011585729,0.023291625,0.61238325,0.5939005,-1.9570495,0.0006659172,0.18837315,-0.026442554,5.9138394e-05,-9.646487,16.341635,0.24966791,0.2245427,0.108543344,0.06472338,inf,inf,inf,inf,1,1,1,1,3,2,3,2,3,1,1,1,0,0,0
260042372,260041729,42042859,60.1877325,24.832678599999998,-5.243119,-13.039772,-19.042816,0.2201162,0.143384,-2.0861626e-07,0.06819268,0.88337016,0.08075867,0.121529624,-0.025945434,0.04994766,0.011585729,1.4853476,1.528567,1.3063049,-1.9452904,0.00066917937,0.19995742,-0.026442554,5.9477097e-05,-9.646487,16.327095,0.24952671,0.22444917,0.107742086,0.06462664,inf,inf,inf,inf,1,1,1,1,3,2,3,2,3,1,1,1,0,0,0
260542416,260541729,42042859,60.1877325,24.832678599999998,-5.251006,-12.592457,-18.971457,0.2201162,0.143384,-2.0861626e-07,-0.08403642,0.8315382,0.16074643,0.18035509,-0.025945434,0.04994766,0.011585729,1.9144627,-3.618176,-2.9628048,-1.9700843,0.0006748735,0.17568542,-0.026442554,5.9891296e-05,-9.646487,16.255735,0.24936312,0.22476456,0.107229285,0.064589284,inf,inf,inf,inf,1,1,1,1,3,2,3,2,3,1,1,1,0,0,0
261042416,261041729,42042859,60.1877325,24.832678599999998,-5.3118563,-12.179374,-18.88427,0.2201162,0.143384,-2.0861626e-07,-0.22213943,0.80926925,0.24551998,0.25795236,-0.025945434,0.04994766,0.011585729,-1.950055,-0.5866163,1.347473,-1.9921081,0.0006823173,0.15207349,-0.026442554,6.023103e-05,-9.646487,16.168549,0.2491882,0.2245751,0.107430845,0.06450654,inf,inf,inf,inf,1,1,1,1,3,2,3,2,3,1,1,1,0,0,0
261542383,261541729,42042859,60.1877325,24.832678599999998,-5.4618225,-11.757418,-18.778002,0.2201162,0.143384,-2.0861626e-07,-0.37764725,0.7432665,0.15332067,0.16942976,-0.025945434,0.04994766,0.011585729,-0.16287781,-2.1489172,-3.3312883,-1.9509636,0.0006895225,0.1968299,-0.026442554,6.05333e-05,-9.646487,16.06228,0.24901164,0.22434843,0.10786206,0.064447306,inf,inf,inf,inf,1,1,1,1,3,2,3,2,3,1,1,1,0,0,0
262042346,262041729,42042859,60.1877325,24.832678599999998,-5.6393147,-11.413322,-18.716547,0.2201162,0.143384,-2.0861626e-07,-0.31486082,0.52235025,0.012392216,0.04219005,-0.025945434,0.04994766,0.011585729,-1.4751236,-0.61184865,-1.3150537,-1.9508878,0.00069612864,0.20011099,-0.026442554,6.062024e-05,-9.646487,16.000826,0.2488733,0.22455432,0.10844006,0.06444889,inf,inf,inf,inf,1,1,1,1,3,2,3,2,3,1,1,1,0,0,0
262542347,262541729,42042859,60.1877325,24.832678599999998,-5.749001,-11.201904,-18.690147,0.2201162,0.143384,-2.0861626e-07,-0.1397595,0.29287833,-0.027247682,0.021510579,-0.025945434,0.04994766,0.011585729,1.3689859,1.649867,-2.5113196,-1.935623,0.00070060825,0.21441557,-0.026442554,6.0480692e-05,-9.646487,15.974426,0.2487902,0.22429568,0.10906562,0.06442344,inf,inf,inf,inf,1,1,1,1,3,2,3,2,3,1,1,1,0,0,0
263042379,263041729,42042859,60.1877325,24.832678599999998,-5.7884364,-11.129514,-18.654594,0.2201162,0.143384,-2.0861626e-07,-0.007543623,0.033937775,0.0057960087,0.06248225,-0.025945434,0.04994766,0.011585729,-3.6299632,-0.72013223,1.1933876,-1.91769,0.0007011425,0.23182265,-0.026442554,6.032399e-05,-9.646487,15.938873,0.24873063,0.22403438,0.10942533,0.06441844,inf,inf,inf,inf,1,1,1,1,3,2,3,2,3,1,1,1,0,0,0
263542508,263541733,42042859,60.1877325,24.832678599999998,-5.7478137,-11.175742,-18.633484,0.2201162,0.143384,-2.0861626e-07,0.11658287,-0.16036698,-0.013819021,0.039268814,-0.025945434,0.04994766,0.011585729,-0.62752706,1.1528006,-0.6924576,-1.9036156,0.00069839513,0.24312614,-0.026442554,6.022316e-05,-9.646487,15.917763,0.24870189,0.22377919,0.10964706,0.06442091,inf,inf,inf,inf,1,1,1,1,3,2,3,2,3,1,1,1,0,0,0
264042354,264041729,42042859,60.1877325,24.832678599999998,-5.7070084,-11.265742,-18.635887,0.2201162,0.143384,-2.0861626e-07,0.054590452,-0.14961247,-0.06949734,-0.027124505,-0.025945434,0.04994766,0.011585729,-0.08349426,0.5601323,-3.6948097,-1.9159304,0.0006972052,0.2305279,-0.026442554,6.0155566e-05,-9.646487,15.920166,0.24871807,0.22399972,0.10905719,0.064445004,inf,inf,inf,inf,1,1,1,1,3,2,3,2,3,1,1,1,0,0,0
264542392,264541729,42042859,60.1877325,24.832678599999998,-5.6503687,-11.468188,-18.7145,0.2201162,0.143384,-2.0861626e-07,0.141707,-0.6803493,-0.14802268,-0.11219185,-0.025945434,0.04994766,0.011585729,0.18483199,-0.9364372,-1.0555857,-1.9618788,0.0006992413,0.18653572,-0.026442554,6.0035603e-05,-9.646487,15.998779,0.24877645,0.22379158,0.109676264,0.06445056,inf,inf,inf,inf,1,1,1,1,3,2,3,2,3,1,1,1,0,0,0
265042424,265041729,42042859,60.1877325,24.832678599999998,-5.5938644,-11.921831,-18.743095,0.2201162,0.143384,-2.0861626e-07,0.08157736,-1.0665479,-0.008129952,0.031602673,-0.025945434,0.04994766,0.011585729,1.3785421,-0.6092225,0.90090686,-1.9707175,0.0006942895,0.17621411,-0.026442554,6.0081366e-05,-9.646487,16.027374,0.24886408,0.22361499,0.10958975,0.06448832,inf,inf,inf,inf,1,1,1,1,3,2,3,2,3,1,1,1,0,0,0
265542198,265541729,42042859,60.1877325,24.832678599999998,-5.5776696,-12.546112,-18.708569,0.2201162,0.143384,-2.0861626e-07,-0.0011460552,-1.2861245,-0.0025480248,0.0365553,-0.025945434,0.04994766,0.011585729,3.3633888,1.4863267,-0.0045532393,-1.9646618,0.00068915274,0.17783438,-0.026442554,6.0423747e-05,-9.646487,15.992847,0.24902593,0.22394216,0.109219,0.064569965,inf,inf,inf,inf,1,1,1,1,3,2,3,2,3,1,1,1,0,0,0
266042167,266041729,42042859,60.1877325,24.832678599999998,-5.6176615,-13.216546,-18.690489,0.2201162,0.143384,-2.0861626e-07,-0.07998295,-1.272773,0.0014844848,0.040570345,-0.025945434,0.04994766,0.011585729,2.3682153,2.5422602,1.5048912,-1.9568717,0.00069005304,0.18519418,-0.026442554,6.070812e-05,-9.646487,15.974768,0.24912636,0.22380671,0.10850632,0.064550355,inf,inf,inf,inf,1,1,1,1,3,2,3,2,3,1,1,1,0,0,0
266542348,266541729,42042859,60.1877325,24.832678599999998,-5.667337,-13.792362,-18.6689,0.2201162,0.143384,-2.0861626e-07,-0.069601625,-0.94977975,-0.011236017,0.030579882,-0.025945434,0.04994766,0.011585729,-0.7095071,0.14045754,-0.7680865,-1.9567809,0.0006969925,0.18538329,-0.026442554,6.0810686e-05,-9.646487,15.953178,0.24918686,0.22366506,0.108126976,0.06449421,inf,inf,inf,inf,1,1,1,1,3,2,3,2,3,1,1,1,0,0,0
267042191,267041729,42042859,60.1877325,24.832678599999998,-5.719225,-14.171117,-18.66163,0.2201162,0.143384,-2.0861626e-07,-0.044822264,-0.522777,-0.03895484,0.0038501853,-0.025945434,0.04994766,0.011585729,1.9356651,1.6752446,1.503401,-1.9675846,0.000700855,0.1741638,-0.026442554,6.067568e-05,-9.646487,15.9459095,0.24931018,0.22401898,0.109160095,0.06452363,inf,inf,inf,inf,1,1,1,1,3,2,3,2,3,1,1,1,0,0,0
267542193,267541729,42042859,60.1877325,24.832678599999998,-5.762156,-14.356033,-18.654833,0.2201162,0.143384,-2.0861626e-07,-0.061167497,-0.18702412,-0.05123004,-0.004359571,-0.025945434,0.04994766,0.011585729,0.6302785,-0.63882715,1.7119719,-1.9492487,0.0006940366,0.19220957,-0.026442554,6.039856e-05,-9.646487,15.939112,0.2494564,0.22394152,0.11037909,0.064523175,inf,inf,inf,inf,1,1,1,1,3,2,3,2,3,1,1,1,0,0,0
268042344,268041729,42042859,60.1877325,24.832678599999998,-5.8017073,-14.379836,-18.648632,0.2201162,0.143384,-2.0861626e-07,-0.03022378,0.0458583,-0.044630498,0.005074451,-0.025945434,0.04994766,0.011585729,0.20576923,0.7004443,-0.48549193,-1.9397763,0.0006809701,0.20116402,-0.026442554,6.0158425e-05,-9.646487,15.932911,0.24955744,0.22385581,0.1107299,0.06450576,inf,inf,inf,inf,1,1,1,1,3,2,3,2,3,1,1,1,0,0,0
268542185,268541729,42042859,60.1877325,24.832678599999998,-5.807471,-14.309289,-18.651974,0.2201162,0.143384,-2.0861626e-07,0.023468815,0.16383672,-0.036763765,0.014139519,-0.025945434,0.04994766,0.011585729,1.0286889,1.0863714,2.94506,-1.9531875,0.00066933985,0.18796113,-0.026442554,6.003948e-05,-9.646487,15.936253,0.24966708,0.22420889,0.11041358,0.06452965,inf,inf,inf,inf,1,1,1,1,3,2,3,2,3,1,1,1,0,0,0
269042198,269041729,42042859,60.1877325,24.832678599999998,-5.8053365,-14.17696,-18.65324,0.2201162,0.143384,-2.0861626e-07,0.024911096,0.41721585,-0.10122278,-0.054071385,-0.025945434,0.04994766,0.011585729,-1.6889244,-0.66927195,1.402775,-1.9080881,0.00066379,0.23535143,-0.026442554,6.0044476e-05,-9.646487,15.937519,0.24976215,0.22409806,0.10972667,0.06451058,inf,inf,inf,inf,1,1,1,1,3,2,3,2,3,1,1,1,0,0,0
269542190,269541729,42042859,60.1877325,24.832678599999998,-5.773508,-13.817403,-18.673336,0.2201162,0.143384,-2.0861626e-07,0.110611275,0.8477725,-0.02596682,0.016155254,-0.025945434,0.04994766,0.011585729,-0.9624377,-2.0732543,-0.7379638,-1.5584005,0.0006551476,0.581016,-0.026442554,6.0076723e-05,-9.646487,15.957615,0.24987602,0.22399442,0.11087477,0.06453137,inf,inf,inf,inf,1,1,1,1,3,2,3,2,3,1,1,1,0,0,0
270042246,270041729,42042859,60.1877325,24.832678599999998,-5.7462807,-13.385816,-18.670977,0.2201162,0.143384,-2.0861626e-07,0.13474125,0.7831996,-0.020680519,0.010748793,-0.025945434,0.04994766,0.011585729,-1.472244,0.6604934,-2.20973,-1.1141999,0.00064910064,1.0234866,-0.026442554,5.997876e-05,-9.646487,15.9552555,0.25000268,0.22389518,0.11013559,0.0644958,inf,inf,inf,inf,1,1,1,1,3,2,3,2,3,1,1,1,0,0,0
270542157,270541729,42042859,60.1877325,24.832678599999998,-5.7044353,-13.0477295,-18.666796,0.2201162,0.143384,-2.0861626e-07,0.1476147,0.54137576,-0.02479981,0.0024476405,-0.025945434,0.04994766,0.011585729,0.3032274,-1.4004409,-1.1890905,-0.60806537,0.0006555339,1.5285306,-0.026442554,5.8503196e-05,-9.646487,15.951075,0.25003788,0.22420791,0.11212949,0.06447888,inf,inf,inf,inf,1,1,1,1,3,2,3,2,3,1,1,1,0,0,0
271042422,271041729,42042859,60.1877325,24.832678599999998,-5.6758,-12.82916,-18.667557,0.2201162,0.143384,-2.0861626e-07,0.09918622,0.33601296,-0.034675654,-0.008657645,-0.025945434,0.04994766,0.011585729,-0.37194794,-0.29565063,1.1993905,-0.08287054,0.0006655261,2.0537868,-0.026442554,5.408388e-05,-9.646487,15.951836,0.25003773,0.22403815,0.118374795,0.06445829,inf,inf,inf,inf,1,1,1,1,3,2,3,2,3,1,1,1,0,0,0
272042351,272041729,42042859,60.1877325,24.832678599999998,-5.639736,-12.743528,-18.698593,0.2201162,0.143384,-2.0861626e-07,0.08540387,0.060026728,-0.027964694,-0.0054505523,-0.025945434,0.04994766,0.011585729,-0.38934577,-1.0729814,1.725634,0.8855332,0.0006791739,3.0216064,-0.026442554,3.837931e-05,-9.646487,15.982872,0.25043306,0.2242197,0.13171378,0.06462332,inf,inf,inf,inf,1,1,1,1,3,2,3,2,3,1,1,1,0,0,0
272542344,272541729,42042859,60.1877325,24.832678599999998,-5.5978246,-12.761799,-18.706835,0.2201162,0.143384,-2.0861626e-07,0.090330064,0.037280157,-0.054260544,-0.03155101,-0.025945434,0.04994766,0.011585729,-0.2780421,1.6783496,0.0066010254,1.3621818,0.00068658823,-2.785909,-0.026442554,3.102815e-05,-9.646487,15.991114,0.25055182,0.22405921,0.13247563,0.06457824,inf,inf,inf,inf,1,1,1,1,3,2,3,2,3,1,1,1,0,0,0
273042349,273041729,42042859,60.1877325,24.832678599999998,-5.5750294,-12.80245,-18.720407,0.2201162,0.143384,-2.0861626e-07,0.052630246,0.025361802,-0.020824172,-0.0034392239,-0.025945434,0.04994766,0.011585729,0.21235488,-0.7952342,-1.2663165,1.8555928,0.0006950514,-2.2925513,-0.026442554,2.585015e-05,-9.646487,16.004686,0.25078014,0.22395048,0.1304407,0.06454614,inf,inf,inf,inf,1,1,1,1,3,2,3,2,3,1,1,1,0,0,0
274042380,274041729,42042859,60.1877325,24.832678599999998,-5.580816,-12.781131,-18.71698,0.2201162,0.143384,-2.0861626e-07,-0.0096306205,0.07525283,0.031165177,0.03263615,-0.025945434,0.04994766,0.011585729,-1.0226516,-1.8098321,1.8883494,2.769883,0.000712109,-1.3780301,-0.026442554,2.1004787e-05,-9.646487,16.001259,0.2536374,0.22528163,0.12455754,0.06498919,inf,inf,inf,inf,1,1,1,1,3,2,3,2,3,1,1,1,0,0,0
274542348,274541729,42042859,60.1877325,24.832678599999998,-5.603504,-12.765831,-18.706223,0.2201162,0.143384,-2.0861626e-07,-0.008736428,0.02029866,0.006175511,0.010895913,-0.025945434,0.04994766,0.011585729,0.9538185,-2.452759,0.05512218,-3.0169196,0.0007194739,-0.88144094,-0.026442554,2.008972e-05,-9.646487,15.990501,0.25489247,0.22581446,0.12082317,0.06516062,inf,inf,inf,inf,1,1,1,1,3,2,3,2,3,1,1,1,0,0,0
275042370,275041729,42042859,60.1877325,24.832678599999998,-5.6041584,-12.759844,-18.699137,0.2201162,0.143384,-2.0861626e-07,0.017048545,-0.021056565,0.028501458,0.029972771,-0.025945434,0.04994766,0.011585729,0.14938661,0.8499354,-0.5462641,-2.4896944,0.0007257059,-0.35384116,-0.026442554,1.9769257e-05,-9.646487,15.983416,0.25656825,0.22663665,0.1176419,0.06543784,inf,inf,inf,inf,1,1,1,1,3,2,3,2,3,1,1,1,0,0,0
275542382,275541729,42042859,60.1877325,24.832678599999998,-5.5874367,-12.782961,-18.708765,0.2201162,0.143384,-2.0861626e-07,0.057137545,-0.085440665,-0.02905593,-0.03137532,-0.025945434,0.04994766,0.011585729,-0.12148947,0.47071725,0.4231764,-1.9618915,0.0007307122,0.17420505,-0.026442554,1.9459569e-05,-9.646487,15.993044,0.25654262,0.22749868,0.11270745,0.06535967,inf,inf,inf,inf,1,1,1,1,3,2,3,2,3,1,1,1,0,0,0
276042203,276041729,42042859,60.1877325,24.832678599999998,-5.61278,-12.832402,-18.706545,0.2201162,0.143384,-2.0861626e-07,0.022176228,-0.035710923,-0.0033839366,0.0042880336,-0.025945434,0.04994766,0.011585729,2.0809746,-3.097296,1.8370268,-1.5093267,0.0007353013,0.6280065,-0.026442554,1.9592233e-05,-9.646487,15.990824,0.25807106,0.22852266,0.11120626,0.06564697,inf,inf,inf,inf,1,1,1,1,3,2,3,2,3,1,1,1,0,0,0
276542212,276541729,42042859,60.1877325,24.832678599999998,-5.6309485,-12.875633,-18.696274,0.2201162,0.143384,-2.0861626e-07,0.028427944,0.012221628,0.004610681,0.018131273,-0.025945434,0.04994766,0.011585729,1.5716476,0.69018334,2.496182,-1.0071201,0.00074092136,1.1315308,-0.026442554,1.9701507e-05,-9.646487,15.980553,0.25935262,0.22946467,0.110430814,0.065827146,inf,inf,inf,inf,1,1,1,1,3,2,3,2,3,1,1,1,0,0,0
277042160,277041729,42042859,60.1877325,24.832678599999998,-5.6325064,-12.902509,-18.68519,0.2201162,0.143384,-2.0861626e-07,0.009260741,-0.0027904124,-0.027714608,-0.010063408,-0.025945434,0.04994766,0.011585729,-0.7884165,0.90680027,-0.17652604,-0.5041198,0.0007480757,1.6357049,-0.026442554,1.9635354e-05,-9.646487,15.969469,0.25933567,0.23031579,0.10913619,0.06571044,inf,inf,inf,inf,1,1,1,1,3,2,3,2,3,1,1,1,0,0,0
277542425,277541729,42042859,60.1877325,24.832678599999998,-5.597636,-12.94131,-18.666443,0.2201162,0.143384,-2.0861626e-07,0.12952721,-0.027286762,-0.03317024,-0.0067651565,-0.025945434,0.04994766,0.011585729,-1.3335998,-1.45669,-4.2034445,-0.1383785,0.0007573564,2.002435,-0.026442554,1.9524672e-05,-9.646487,15.950722,0.25859776,0.23020989,0.108047016,0.06537715,inf,inf,inf,inf,1,1,1,1,3,2,3,2,3,1,1,1,0,0,0
278042203,278041729,42042859,60.1877325,24.832678599999998,-5.5330133,-12.983601,-18.68082,0.2201162,0.143384,-2.0861626e-07,0.11595351,-0.0152121885,-0.061554156,-0.039029498,-0.025945434,0.04994766,0.011585729,-1.4439222,-0.67639756,-1.7700607,-0.06483574,0.00076739234,2.0760798,-0.026442554,1.9593337e-05,-9.646487,15.965099,0.2581894,0.23006517,0.10872534,0.06519122,inf,inf,inf,inf,1,1,1,1,3,2,3,2,3,1,1,1,0,0,0
278542350,278541730,42042859,60.1877325,24.832678599999998,-5.503956,-12.994137,-18.706112,0.2201162,0.143384,-2.0861626e-07,0.017832492,0.0041142926,-0.022727078,-0.010590487,-0.025945434,0.04994766,0.011585729,0.9747433,0.25790712,3.1140087,-0.10904362,0.00077841926,2.0319083,-0.026442554,1.991598e-05,-9.646487,15.990391,0.2581092,0.23042662,0.10989893,0.065174766,inf,inf,inf,inf,1,1,1,1,3,2,3,2,3,1,1,1,0,0,0
279042350,279041729,42042859,60.1877325,24.832678599999998,-5.4955072,-12.967179,-18.717934,0.2201162,0.143384,-2.0861626e-07,-0.0044684713,0.09392884,0.03277597,0.033137925,-0.025945434,0.04994766,0.011585729,-0.33373496,0.6451112,0.40195566,-0.14517578,0.0007899887,1.9962486,-0.026442554,2.0454558e-05,-9.646487,16.002213,0.25770277,0.23007953,0.11034768,0.06501187,inf,inf,inf,inf,1,1,1,1,3,2,3,2,3,1,1,1,0,0,0
279542191,279541729,42042859,60.1877325,24.832678599999998,-5.501508,-12.910267,-18.710608,0.2201162,0.143384,-2.0861626e-07,-0.018671853,0.096913315,0.0814701,0.07044545,-0.025945434,0.04994766,0.011585729,2.6845775,-1.8802708,2.4852214,-0.1411004,0.0008013084,2.000809,-0.026442554,2.1298592e-05,-9.646487,15.994886,0.2574825,0.22974081,0.11072664,0.06490981,inf,inf,inf,inf,1,1,1,1,3,2,3,2,3,1,1,1,0,0,0
280542156,280541729,42042859,60.1877325,24.832678599999998,-5.528644,-12.753716,-18.661955,0.2201162,0.143384,-2.0861626e-07,-0.014157132,0.070269495,0.022978721,0.027204992,-0.025945434,0.04994766,0.011585729,-2.3314037,-2.212102,-1.0480577,-0.19017307,0.00082509127,1.9537872,-0.026442554,2.3545135e-05,-9.646487,15.946234,0.25731835,0.22954683,0.11091628,0.06481131,inf,inf,inf,inf,1,1,1,1,3,2,3,2,3,1,1,1,0,0,0
281042157,281041729,42042859,60.1877325,24.832678599999998,-5.528095,-12.727077,-18.642021,0.2201162,0.143384,-2.0861626e-07,0.019785747,-0.01411123,-0.01696264,-0.004495011,-0.025945434,0.04994766,0.011585729,0.6228769,-0.18722749,1.5857852,-0.18479426,0.00083748024,1.9596806,-0.026442554,2.482754e-05,-9.646487,15.9263,0.2574463,0.22925122,0.11075308,0.0647632,inf,inf,inf,inf,1,1,1,1,3,2,3,2,3,1,1,1,0,0,0
281542435,281541729,42042859,60.1877325,24.832678599999998,-5.553686,-12.748084,-18.64815,0.2201162,0.143384,-2.0861626e-07,-0.014814025,-0.05398444,-0.036630865,-0.020430896,-0.025945434,0.04994766,0.011585729,-2.3401673,0.47614804,-2.0219574,-0.20112658,0.0008497982,1.9424347,-0.026442554,2.631831e-05,-9.646487,15.932428,0.2590127,0.22949165,0.11253989,0.06507619,inf,inf,inf,inf,1,1,1,1,3,2,3,2,3,1,1,1,0,0,0
282042193,282041729,42042859,60.1877325,24.832678599999998,-5.56278,-12.758193,-18.638466,0.2201162,0.143384,-2.0861626e-07,-0.011141385,-0.059879847,-0.020015545,0.005572189,-0.025945434,0.04994766,0.011585729,-1.4510528,-1.123557,1.9207156,-0.20376657,0.0008624162,1.9403,-0.026442554,2.7560724e-05,-9.646487,15.922745,0.25961974,0.22991262,0.11205463,0.06510906,inf,inf,inf,inf,1,1,1,1,3,2,3,2,3,1,1,1,0,0,0
282542159,282541729,42042859,60.1877325,24.832678599999998,-5.5558405,-12.773624,-18.631252,0.2201162,0.143384,-2.0861626e-07,-0.0026816688,-0.07313304,-0.03996653,-0.009279569,-0.025945434,0.04994766,0.011585729,-1.3746456,-0.21893176,2.1368024,-0.19024524,0.00087533484,1.9541142,-0.026442554,2.8902925e-05,-9.646487,15.915531,0.26108223,0.23014814,0.11292763,0.06530178,inf,inf,inf,inf,1,1,1,1,3,2,3,2,3,1,1,1,0,0,0
283042390,283041729,42042859,60.1877325,24.832678599999998,-5.5966682,-12.842271,-18.647108,0.2201162,0.143384,-2.0861626e-07,-0.032207467,-0.13372424,-0.03823507,-0.012610952,-0.025945434,0.04994766,0.011585729,-1.6892269,-2.9196656,0.392293,-0.18170603,0.00088866043,1.9613894,-0.026442554,3.0238083e-05,-9.646487,15.931387,0.2636075,0.23084417,0.11480999,0.06570126,inf,inf,inf,inf,1,1,1,1,3,2,3,2,3,1,1,1,0,0,0
283542191,283541729,42042859,60.1877325,24.832678599999998,-5.6145296,-12.882484,-18.659409,0.2201162,0.143384,-2.0861626e-07,0.11266813,0.054178983,-0.000112818554,0.020251518,-0.025945434,0.04994766,0.011585729,2.1580346,0.048435964,2.7072651,-0.22052294,0.0009022116,1.9232794,-0.026442554,3.15308e-05,-9.646487,15.943687,0.2665031,0.23224457,0.11704409,0.066215806,inf,inf,inf,inf,1,1,1,1,3,2,3,2,3,1,1,1,0,0,0
284042202,284041729,42042859,60.1877325,24.832678599999998,-5.5400815,-12.866527,-18.603416,0.2201162,0.143384,-2.0861626e-07,0.2847702,0.03525955,0.021694876,0.034400955,-0.025945434,0.04994766,0.011585729,-3.994264,-5.732627,-5.7399974,-1.2044536,0.00091151404,0.9394189,-0.026442554,3.2480406e-05,-9.646487,15.887695,0.2686243,0.2329646,0.11762582,0.06646529,inf,inf,inf,inf,1,1,1,1,3,2,3,2,3,1,1,1,0,0,0
284542160,284541729,42042859,60.1877325,24.832678599999998,-5.4144363,-12.782604,-18.656475,0.2201162,0.143384,-2.0861626e-07,0.3725688,0.1379937,-0.05437303,-0.057951607,-0.025945434,0.04994766,0.011585729,-2.2881627,-2.915299,1.3010135,-1.8494107,0.0009129465,0.29303098,-0.026442554,3.3117263e-05,-9.646487,15.940754,0.27513835,0.23508929,0.124865815,0.06753657,inf,inf,inf,inf,1,1,1,1,3,2,3,2,3,1,1,1,0,0,0
285042186,285041729,42042859,60.1877325,24.832678599999998,-5.205028,-12.750516,-18.64658,0.2201162,0.143384,-2.0861626e-07,0.4795952,0.018068783,0.06429792,0.059336875,-0.025945434,0.04994766,0.011585729,1.5383658,10.473157,-2.641973,-1.9945608,0.0009117897,0.14924513,-0.026442554,3.4406687e-05,-9.646487,15.930859,0.302709,0.2466563,0.14232767,0.07050067,inf,inf,inf,inf,1,1,1,1,3,2,3,2,3,1,1,1,0,0,0
285542217,285541729,42042859,60.1877325,24.832678599999998,-4.9602737,-12.774847,-18.667013,0.2201162,0.143384,-2.0861626e-07,0.51841694,-0.16707072,-0.052632395,-0.058612607,-0.025945434,0.04994766,0.011585729,-1.9476775,-5.4870715,-2.0317364,-2.0009198,0.0009122723,0.14528495,-0.026442554,3.6747377e-05,-9.646487,15.951292,0.3542873,0.26599708,0.16960739,0.07439975,inf,inf,inf,inf,1,1,1,1,3,2,3,2,3,1,1,1,0,0,0
286042193,286041729,42042859,60.1877325,24.832678599999998,-4.665192,-12.906805,-18.688723,0.2201162,0.143384,-2.0861626e-07,0.63441133,-0.35865992,0.009305139,0.0026861376,-0.025945434,0.04994766,0.011585729,-1.8764725,3.0415416,4.466349,-1.9544331,0.0009131966,0.19043618,-0.026442554,3.9320457e-05,-9.646487,15.9730015,0.42142594,0.28565806,0.19842094,0.07782999,inf,inf,inf,inf,1,1,1,1,3,2,3,2,3,1,1,1,0,0,1
286542191,286541729,42042859,60.1877325,24.832678599999998,-4.319892,-13.143964,-18.663465,0.2201162,0.143384,-2.0861626e-07,0.6957265,-0.5684949,0.05689044,0.05706533,-0.025945434,0.04994766,0.011585729,-0.96560633,-1.679807,2.399594,-1.893347,0.00091509445,0.24743311,-0.026442554,4.2207605e-05,-9.646487,15.947744,0.5050596,0.30569398,0.22825839,0.08086446,inf,inf,inf,inf,1,1,1,1,3,2,3,2,3,1,1,1,0,0,1
287042200,287041729,42042859,60.1877325,24.832678599999998,-3.9807901,-13.423405,-18.644083,0.2201162,0.143384,-2.0861626e-07,0.6581318,-0.52218395,0.0067249076,0.015902705,-0.025945434,0.04994766,0.011585729,1.5167665,2.0676363,3.0374346,-1.8688356,0.00091806747,0.27048156,-0.026442554,4.5423163e-05,-9.646487,15.928362,0.6055877,0.32696143,0.2588721,0.08366027,inf,inf,inf,inf,1,1,1,1,3,2,3,2,3,1,1,1,0,0,1
287542204,287541729,42042859,60.1877325,24.832678599999998,-3.6854951,-13.665711,-18.626268,0.2201162,0.143384,-2.0861626e-07,0.5431986,-0.39976314,-0.0087361885,0.009747894,-0.025945434,0.04994766,0.011585729,-0.4085376,0.19604485,-0.32194424,-1.8913628,0.00092172733,0.24853092,-0.026442554,4.887759e-05,-9.646487,15.910547,0.72291386,0.3463828,0.28965348,0.08586371,inf,inf,inf,inf,1,1,1,1,3,2,3,2,3,1,1,1,0,0,1
288042202,288041729,42042859,60.1877325,24.832678599999998,-3.4382892,-13.8516655,-18.606335,0.2201162,0.143384,-2.0861626e-07,0.45426536,-0.32630256,0.02307054,0.046277344,-0.025945434,0.04994766,0.011585729,-0.3747816,3.1008914,0.38794708,-1.9099077,0.0009257468,0.23054461,-0.026442554,5.248574e-05,-9.646487,15.890614,0.8567816,0.36465582,0.32139,0.087691315,inf,inf,inf,inf,1,1,1,1,3,2,3,2,3,1,1,1,0,0,1
288542160,288541729,42042859,60.1877325,24.832678599999998,-3.2355714,-13.986084,-18.601643,0.2201162,0.143384,-2.0861626e-07,0.36893106,-0.2230834,-0.07047642,-0.049847767,-0.025945434,0.04994766,0.011585729,0.08541651,7.0312343,-3.3065434,-1.9245924,0.0009301332,0.21753949,-0.026442554,5.6246103e-05,-9.646487,15.8859215,1.0070949,0.3836971,0.35417965,0.089475036,inf,inf,inf,inf,1,1,1,1,3,2,3,2,3,1,1,1,0,0,1
289042159,289041729,42042859,60.1877325,24.832678599999998,-3.091511,-14.068187,-18.65684,0.2201162,0.143384,-2.0861626e-07,0.21997015,-0.1421802,-0.07771307,-0.069846526,-0.025945434,0.04994766,0.011585729,-0.07049133,-0.32585847,-1.5621761,-1.9500722,0.0009348533,0.19215065,-0.026442554,6.0136357e-05,-9.646487,15.941118,1.1740055,0.39902624,0.3879506,0.09065471,inf,inf,inf,inf,1,1,1,1,3,2,3,2,3,1,1,1,0,0,1
289542252,289541729,42042859,60.1877325,24.832678599999998,-3.0066574,-14.097574,-18.687141,0.2201162,0.143384,-2.0861626e-07,0.15592176,-0.0054454273,-0.06670571,-0.062164634,-0.025945434,0.04994766,0.011585729,-2.02914,3.1132843,-1.2060674,-1.9623146,0.0009398617,0.18093732,-0.026442554,6.415317e-05,-9.646487,15.97142,1.3572426,0.41243857,0.4216713,0.09154958,inf,inf,inf,inf,1,1,1,1,3,2,3,2,3,1,1,1,0,0,1
290042222,290041729,42042859,60.1877325,24.832678599999998,-2.914586,-14.05748,-18.707996,0.2201162,0.143384,-2.0861626e-07,0.29418567,0.14235215,-0.121072985,-0.13975716,-0.025945434,0.04994766,0.011585729,2.5199294,1.0356071,-3.9999378,-1.9936574,0.00094520143,0.1517276,-0.026442554,6.8287976e-05,-9.646487,15.992275,1.5569708,0.42389485,0.45590705,0.09218567,inf,inf,inf,inf,0,1,0,1,3,2,3,2,3,1,1,1,0,0,1
290542378,290541729,42042859,60.1877325,24.832678599999998,-2.685782,-13.926476,-18.8897,0.2201162,0.143384,-2.0861626e-07,0.59845066,0.29095542,-0.33821678,-0.36617798,-0.025945434,0.04994766,0.011585729,1.1529906,4.6592712,-3.2155926,-2.0098734,0.0009508894,0.13603184,-0.026442554,7.241265e-05,-9.646487,16.173979,1.7738639,0.4367981,0.49634352,0.093015894,inf,inf,inf,inf,0,1,0,1,3,2,3,2,3,1,1,1,0,0,1
291042333,291041729,42042859,60.1877325,24.832678599999998,-2.342108,-13.754348,-19.023104,0.2201162,0.143384,-2.0861626e-07,0.7618246,0.33080384,-0.25260141,-0.2560684,-0.025945434,0.04994766,0.011585729,1.7277939,-0.53415054,-0.4316831,-2.0303435,0.0009568149,0.11604575,-0.026442554,7.663235e-05,-9.646487,16.307383,2.0087605,0.44476533,0.5334175,0.0932676,inf,inf,inf,inf,0,1,0,1,3,2,3,2,3,1,1,1,0,0,1
291542419,291541729,42042859,60.1877325,24.832678599999998,-1.9362609,-13.552105,-19.12209,0.2201162,0.143384,-2.0861626e-07,0.81863815,0.38355967,-0.23325238,-0.21059737,-0.025945434,0.04994766,0.011585729,-2.231139,2.3770845,0.016712207,-2.0505495,0.00096310955,0.09613892,-0.026442554,8.092301e-05,-9.646487,16.406368,2.2608433,0.45106852,0.57083195,0.09339982,inf,inf,inf,inf,0,1,0,1,3,2,3,2,3,1,1,1,0,0,1
292042362,292041729,42042859,60.1877325,24.832678599999998,-1.4966475,-13.341357,-19.209276,0.2201162,0.143384,-2.0861626e-07,0.88327,0.3546516,-0.20299286,-0.15224908,-0.025945434,0.04994766,0.011585729,-0.87511104,3.0335279,0.8304825,-2.0485804,0.00096974114,0.09877618,-0.026442554,8.529831e-05,-9.646487,16.493555,2.530149,0.45980102,0.6089042,0.093875036,inf,inf,inf,inf,0,1,0,1,3,2,3,2,3,1,1,1,0,0,1
292542361,292541729,42042859,60.1877325,24.832678599999998,-0.9896194,-13.149279,-19.294462,0.2201162,0.143384,-2.0861626e-07,1.0540615,0.24411061,-0.1728439,-0.11892278,-0.025945434,0.04994766,0.011585729,-0.7444202,-0.49330693,0.9397833,-2.013527,0.0009768098,0.13435991,-0.026442554,8.9735375e-05,-9.646487,16.578741,2.8167083,0.46347085,0.6480165,0.093861535,inf,inf,inf,inf,0,1,0,1,3,2,3,2,3,1,1,1,0,0,1
293042329,293041729,42042859,60.1877325,24.832678599999998,-0.4155242,-13.034199,-19.382296,0.2201162,0.143384,-2.0861626e-07,1.1589211,0.07999788,-0.22443782,-0.16986862,-0.025945434,0.04994766,0.011585729,-0.5575837,0.926007,-1.3120899,-1.9778354,0.0009842165,0.1703844,-0.026442554,9.4346935e-05,-9.646487,16.666574,3.120918,0.46603426,0.6866559,0.09378316,inf,inf,inf,inf,0,1,0,1,3,2,3,2,3,1,1,1,0,0,1
293542372,293541729,42042859,60.1877325,24.832678599999998,0.2074129,-13.013751,-19.462122,0.2201162,0.143384,-2.0861626e-07,1.2575959,-0.10378574,-0.22746244,-0.17379661,-0.025945434,0.04994766,0.011585729,1.7199663,3.483592,1.7426481,-2.0014787,0.0009921743,0.14712463,-0.026442554,9.9074954e-05,-9.646487,16.7464,3.4425786,0.4718843,0.7257727,0.094185345,inf,inf,inf,inf,0,1,0,1,3,2,3,2,3,1,1,1,0,0,1
294042375,294041730,42042859,60.1877325,24.832678599999998,0.8865212,-13.036509,-19.575493,0.2201162,0.143384,-2.0861626e-07,1.3770704,-0.070713095,-0.20870413,-0.16394933,-0.025945434,0.04994766,0.011585729,5.01013,-1.1498911,0.37761292,-2.0024652,0.0010005696,0.14626122,-0.026442554,0.000103789855,-9.646487,16.859772,3.7815866,0.47283986,0.7661272,0.09413177,inf,inf,inf,inf,0,1,0,1,3,2,3,2,3,1,1,1,0,0,1
294542336,294541729,42042859,60.1877325,24.832678599999998,1.6291108,-13.008735,-19.6335,0.2201162,0.143384,-2.0861626e-07,1.4895734,0.042686462,-0.19008438,-0.12088957,-0.025945434,0.04994766,0.011585729,1.5368209,-0.4598039,0.25332552,-1.9797448,0.0010094433,0.16901545,-0.026442554,0.000108547094,-9.646487,16.917778,4.1384077,0.47319984,0.80669355,0.09409112,inf,inf,inf,inf,0,1,0,1,3,2,3,2,3,1,1,1,0,0,1
295042359,295041729,42042859,60.1877325,24.832678599999998,2.4287696,-12.918397,-19.68267,0.2201162,0.143384,-2.0861626e-07,1.5899194,0.16036601,-0.26055843,-0.15450689,-0.025945434,0.04994766,0.011585729,-2.149871,1.1237192,2.215418,-1.9726714,0.0010187124,0.17618424,-0.026442554,0.000113349655,-9.646487,16.96695,4.5131993,0.47312227,0.8486531,0.09405595,inf,inf,inf,inf,0,1,0,1,3,2,3,2,3,1,1,1,0,0,1
295542375,295541729,42042859,60.1877325,24.832678599999998,3.2811756,-12.7935505,-19.72996,0.2201162,0.143384,-2.0861626e-07,1.6579496,0.17170842,-0.24784982,-0.11309744,-0.025945434,0.04994766,0.011585729,-2.0984786,0.17421764,1.7027361,-1.9776105,0.0010283273,0.17133167,-0.026442554,0.00011816791,-9.646487,17.014238,4.9062533,0.4770674,0.89043427,0.09450646,inf,inf,inf,inf,0,1,0,1,3,2,3,2,3,1,1,1,0,0,1
296042431,296041729,42042859,60.1877325,24.832678599999998,4.147023,-12.646245,-19.772963,0.2201162,0.143384,-2.0861626e-07,1.5585986,0.27167448,-0.2629236,-0.10841009,-0.025945434,0.04994766,0.011585729,0.50543416,-1.4501333,2.5459013,-1.9817792,0.0010384026,0.16642009,-0.026442554,0.00012298292,-9.646487,17.057241,5.3172626,0.4763928,0.9320354,0.0944732,inf,inf,inf,inf,0,1,0,1,3,2,3,2,3,1,1,1,0,0,1
297042359,297041729,42042859,60.1877325,24.832678599999998,4.4222155,-11.842402,-19.962397,0.2201162,0.143384,-2.0861626e-07,-1.1851184,1.4425112,-0.3298029,-0.18820865,-0.025945434,0.04994766,0.011585729,-1.6404731,1.6129993,0.13152567,-1.9225434,0.001060108,0.22098635,-0.026442554,0.00013370698,-9.646487,17.246675,6.193006,0.4787865,0.9999473,0.096164934,inf,inf,inf,inf,0,1,0,1,3,2,3,2,3,1,1,1,0,0,1
297542581,297541729,42042859,60.1877325,24.832678599999998,3.5131772,-11.226345,-20.151691,0.2201162,0.143384,-2.0861626e-07,-2.0090497,1.133078,-0.28661877,-0.21900547,-0.025945434,0.04994766,0.011585729,1.6730504,-2.5239666,1.3324684,-1.9601127,0.0010672841,0.19220662,-0.026442554,0.00013922667,-9.646487,17.43597,6.6502256,0.47768614,1.0354785,0.09767226,inf,inf,inf,inf,0,1,0,1,3,2,3,2,3,1,1,1,0,0,1
298542549,298541729,42042859,60.1877325,24.832678599999998,1.0395883,-10.562725,-20.502596,0.2201162,0.143384,-2.0861626e-07,-2.7475262,0.46464032,0.09307793,0.0025194187,-0.025945434,0.04994766,0.011585729,3.1640158,-0.9296273,4.716722,-1.9525052,0.00107172,0.20943421,-0.026442554,0.0001493968,-9.646487,17.786875,7.599821,0.4803194,1.107028,0.09912953,inf,inf,inf,inf,0,1,0,1,3,2,3,2,3,1,1,1,0,0,1
299042367,299041729,42042859,60.1877325,24.832678599999998,-0.35410908,-10.456377,-20.49851,0.2201162,0.143384,-2.0861626e-07,-2.9645817,0.07188367,0.2648979,0.15460712,-0.025945434,0.04994766,0.011585729,1.1360328,0.9506658,-1.5499914,-1.9452435,0.0010752731,0.21590167,-0.026442554,0.000154393,-9.646487,17.78279,8.096858,0.47959182,1.1458002,0.09935883,inf,inf,inf,inf,0,1,0,1,3,2,3,2,3,1,1,1,0,0,1
299542427,299541729,42042859,60.1877325,24.832678599999998,-1.8633716,-10.530485,-20.409063,0.2201162,0.143384,-2.0861626e-07,-3.2020915,-0.2749493,0.25576764,0.16154079,-0.025945434,0.04994766,0.011585729,4.1377482,-0.33127314,-0.8395622,-1.9451222,0.001079551,0.2146785,-0.026442554,0.0001593538,-9.646487,17.693342,8.60916,0.47891277,1.1852204,0.099582784,inf,inf,inf,inf,0,1,0,1,3,2,3,2,3,1,1,1,0,0,1
300042421,300041729,42042859,60.1877325,24.832678599999998,-3.5316606,-10.808208,-20.234863,0.2201162,0.143384,-2.0861626e-07,-3.479682,-0.6556591,0.30353627,0.27891472,-0.025945434,0.04994766,0.011585729,-0.95939356,0.011857827,-1.8007132,-1.9916092,0.001084351,0.17341384,-0.026442554,0.00016447027,-9.646487,17.519142,9.139429,0.48278338,1.2252039,0.10053744,inf,inf,inf,inf,0,1,0,1,3,2,3,2,3,1,1,1,0,0,1
300542148,300541729,42042859,60.1877325,24.832678599999998,-5.340527,-11.145786,-19.987263,0.2201162,0.143384,-2.0861626e-07,-3.415825,-0.49372667,0.36232874,0.4200598,-0.025945434,0.04994766,0.011585729,-3.82246,-2.4453452,-1.519634,-2.039558,0.0010922021,0.12794498,-0.026442554,0.00016978916,-9.646487,17.271542,9.689687,0.48220357,1.2693721,0.100305274,inf,inf,inf,inf,0,1,0,1,3,2,3,2,3,1,1,1,0,0,1
301042153,301041729,42042859,60.1877325,24.832678599999998,-7.0827203,-11.368023,-19.729403,0.2201162,0.143384,-2.0861626e-07,-3.155339,-0.3337733,0.44125357,0.51313025,-0.025945434,0.04994766,0.011585729,1.7757969,-0.021751082,-0.09291415,-2.0498772,0.0010994582,0.117907226,-0.026442554,0.00017376698,-9.646487,17.013681,10.246595,0.48146492,1.3135308,0.099205524,inf,inf,inf,inf,0,1,0,1,3,2,3,2,3,1,1,1,0,0,1
301542351,301541729,42042859,60.1877325,24.832678599999998,-8.649696,-11.476975,-19.4459,0.2201162,0.143384,-2.0861626e-07,-2.8321695,-0.20418634,0.67649066,0.7149375,-0.025945434,0.04994766,0.011585729,2.9662828,4.6624565,-1.3167413,-2.04498,0.0011068463,0.12343974,-0.026442554,0.0001770508,-9.646487,16.730179,10.814623,0.48046723,1.3559363,0.09817529,inf,inf,inf,inf,0,1,0,1,3,2,3,2,3,1,1,1,0,0,1
302042304,302041729,42042859,60.1877325,24.832678599999998,-10.015374,-11.520275,-19.088676,0.2201162,0.143384,-2.0861626e-07,-2.5566194,-0.09151896,0.97109497,0.95366716,-0.025945434,0.04994766,0.011585729,1.386861,0.8152677,-2.0240693,-2.0554402,0.0011146837,0.113546364,-0.026442554,0.00018023365,-9.646487,16.372955,11.400469,0.48377654,1.3985149,0.097796604,inf,inf,inf,inf,0,1,0,1,3,2,3,2,3,1,1,1,0,0,1
302542252,302541729,42042859,60.1877325,24.832678599999998,-11.287647,-11.538381,-18.61451,0.2201162,0.143384,-2.0861626e-07,-2.3070471,-0.012909269,1.0480437,1.0250541,-0.025945434,0.04994766,0.011585729,0.05891978,-1.393316,-1.574769,-2.0466394,0.0011231326,0.12288314,-0.026442554,0.00018352046,-9.646487,15.898788,12.006434,0.48234,1.4422537,0.09717899,inf,inf,inf,inf,0,1,0,1,3,2,3,2,3,1,1,1,0,0,1
303042272,303041729,42042859,60.1877325,24.832678599999998,-12.398329,-11.49435,-17.991394,0.2201162,0.143384,-2.0861626e-07,-2.0696905,0.05102774,1.4132051,1.3965399,-0.025945434,0.04994766,0.011585729,3.9057465,1.58623,2.2431736,-2.0305886,0.0011320249,0.1393538,-0.026442554,0.00018678998,-9.646487,15.275673,12.631105,0.48078072,1.4835216,0.09675369,inf,inf,inf,inf,0,1,0,1,3,2,3,2,3,1,1,1,0,0,1
303542156,303541729,42042859,60.1877325,24.832678599999998,-13.372336,-11.411455,-17.30734,0.2201162,0.143384,-2.0861626e-07,-1.8543506,0.15250577,1.3781756,1.3570713,-0.025945434,0.04994766,0.011585729,5.037913,-2.8370512,-0.06614198,-2.052853,0.0011417574,0.11767668,-0.026442554,0.00019023058,-9.646487,14.5916195,13.278152,0.4836783,1.5290314,0.09689261,inf,inf,inf,inf,0,1,0,1,3,2,3,2,3,1,1,1,0,0,1
304042183,304041729,42042859,60.1877325,24.832678599999998,-14.169449,-11.263032,-16.641338,0.2201162,0.143384,-2.0861626e-07,-1.6516396,0.3449408,1.3569891,1.3226597,-0.025945434,0.04994766,0.011585729,4.790114,-2.2447708,-2.065127,-2.0571027,0.0011522392,0.113393515,-0.026442554,0.0001937769,-9.646487,13.925617,13.94803,0.48201796,1.5762209,0.09670524,inf,inf,inf,inf,0,1,0,1,3,2,3,2,3,1,1,1,0,0,1
305042170,305041730,42042859,60.1877325,24.832678599999998,-15.295076,-10.872968,-15.252721,0.2201162,0.143384,-2.0861626e-07,-0.93830174,0.30347642,1.3817053,1.3630924,-0.025945434,0.04994766,0.011585729,3.3402338,2.655548,-0.71864295,-2.0180526,0.0011740128,0.15357824,-0.026442554,0.00019997335,-9.646487,12.537,15.34228,0.4831854,1.6728722,0.096988425,inf,inf,inf,inf,0,1,0,1,3,2,3,2,3,1,1,1,0,0,1
305542149,305541729,42042859,60.1877325,24.832678599999998,-15.646965,-10.722883,-14.570433,0.2201162,0.143384,-2.0861626e-07,-0.7163825,0.26097673,1.4035411,1.3926795,-0.025945434,0.04994766,0.011585729,1.0003339,2.9502752,2.5877876,-2.0081868,0.00118571,0.16378221,-0.026442554,0.0002033498,-9.646487,11.854712,16.075558,0.48157647,1.7221572,0.09699877,inf,inf,inf,inf,0,1,0,1,3,2,3,2,3,1,1,1,0,0,1
306042305,306041729,42042859,60.1877325,24.832678599999998,-15.90878,-10.532698,-13.879426,0.2201162,0.143384,-2.0861626e-07,-0.51844007,0.3090628,1.3615755,1.3556432,-0.025945434,0.04994766,0.011585729,-2.4584105,-2.836888,-1.3385797,-2.0201879,0.0011974628,0.15193583,-0.026442554,0.00020645678,-9.646487,11.163705,16.82624,0.48005614,1.7695469,0.09702872,inf,inf,inf,inf,0,1,0,1,3,2,3,2,3,1,1,1,0,0,1
306542222,306541729,42042859,60.1877325,24.832678599999998,-16.075106,-10.290237,-13.199437,0.2201162,0.143384,-2.0861626e-07,-0.3752141,0.3769347,1.3496633,1.3465331,-0.025945434,0.04994766,0.011585729,-1.0273272,5.8938107,2.3800206,-2.0164828,0.0012098684,0.15589127,-0.026442554,0.00020972353,-9.646487,10.483716,17.601915,0.47862712,1.8180625,0.097026534,inf,inf,inf,inf,0,1,0,1,3,2,3,2,3,1,1,1,0,0,1
307042149,307041729,42042859,60.1877325,24.832678599999998,-16.172747,-10.03738,-12.534847,0.2201162,0.143384,-2.0861626e-07,-0.21888052,0.363885,1.3013498,1.2998096,-0.025945434,0.04994766,0.011585729,-3.2771833,6.107893,0.9111522,-2.0569477,0.0012225269,0.115623355,-0.026442554,0.00021278718,-9.646487,9.819126,18.396969,0.4817555,1.8662702,0.09747271,inf,inf,inf,inf,0,1,0,1,3,2,3,2,3,1,1,1,0,0,1
307542157,307541729,42042859,60.1877325,24.832678599999998,-10.436324,-10.292995,-8.838865,5.5720596,-0.48735332,2.9694805,0.55677515,0.33913007,1.4774156,1.46997,0.63570386,-0.087028086,0.2900833,2.0797913,-9.602606,-1.7400606,-2.063251,0.0012364442,0.10941274,-0.026442554,0.00021561907,-9.646487,9.092625,1.5036429,1.1868261,0.24571747,0.25992113,inf,inf,inf,inf,1,1,1,1,4,3,4,3,3,1,1,1,0,0,0
308542206,308541730,42042859,60.1877325,24.832678599999998,-9.692086,-10.008705,-7.7913933,5.5720596,-0.48735332,2.9694805,1.0524743,0.07811654,0.59364635,0.56184477,0.63570386,-0.087028086,0.2900833,2.4190292,-2.2438235,-5.717393,-2.0009916,0.0011651135,0.18587656,-0.026442554,0.00018012186,-9.646487,8.045153,0.7168888,0.5381314,0.14677647,0.12662303,inf,inf,inf,inf,1,1,1,1,4,3,4,3,3,1,1,1,0,0,0
309042210,309041729,42042859,60.1877325,24.832678599999998,-8.858373,-10.23735,-7.8804393,5.5720596,-0.48735332,2.9694805,2.399438,-1.0197272,-0.96269596,-0.9854564,0.63570386,-0.087028086,0.2900833,2.9201405,1.9000951,-3.6135685,-1.9624016,0.001049877,0.22227557,-0.026442554,0.00014837153,-9.646487,8.134199,0.6112325,0.45804024,0.18045172,0.11599032,inf,inf,inf,inf,1,1,1,1,4,3,4,3,3,1,1,1,0,0,0
309542166,309541729,42042859,60.1877325,24.832678599999998,-7.5796304,-10.987327,-8.602922,5.5720596,-0.48735332,2.9694805,3.108762,-2.1336787,-2.1522286,-2.1206198,0.63570386,-0.087028086,0.2900833,4.0986023,-1.7935529,-4.9723935,-1.930472,0.0008714228,0.24116218,-0.026442554,0.000117034644,-9.646487,8.856682,0.54782075,0.41049755,0.2078702,0.111946665,inf,inf,inf,inf,1,1,1,1,4,3,4,3,3,1,1,1,0,0,0
310042212,310041729,42042859,60.1877325,24.832678599999998,-6.2610807,-12.156441,-9.6946945,5.5720596,-0.48735332,2.9694805,2.6292937,-2.322264,-2.759733,-2.605343,0.63570386,-0.087028086,0.2900833,-2.9473531,2.0374599,-2.5804193,-1.9707915,0.00071782625,0.18404597,-0.026442554,8.472902e-05,-9.646487,9.948454,0.50330937,0.38103977,0.18669426,0.10444443,inf,inf,inf,inf,1,1,1,1,4,3,4,3,3,1,1,1,0,0,0
310542193,310541729,42042859,60.1877325,24.832678599999998,-5.09235,-13.304064,-10.782925,5.5720596,-0.48735332,2.9694805,1.8956681,-1.8960733,-2.5733943,-2.295187,0.63570386,-0.087028086,0.2900833,-0.6526529,3.2015975,2.9606035,-1.9880607,0.0006928422,0.1726996,-0.026442554,6.712909e-05,-9.646487,11.036684,0.47093606,0.35859627,0.16863254,0.097715124,inf,inf,inf,inf,1,1,1,1,4,3,4,3,3,1,1,1,0,0,0
311042158,311041729,42042859,60.1877325,24.832678599999998,-4.0590672,-14.249153,-11.607459,5.5720596,-0.48735332,2.9694805,1.3080832,-1.423479,-1.2945629,-1.0456407,0.63570386,-0.087028086,0.2900833,-4.8799944,2.9797423,3.2291684,-2.0032578,0.0006884159,0.16239454,-0.026442554,5.7279343e-05,-9.646487,11.861218,0.44799912,0.3430614,0.16001096,0.0934735,inf,inf,inf,inf,1,1,1,1,4,3,4,3,3,1,1,1,0,0,0
312042203,312041729,42042859,60.1877325,24.832678599999998,-2.83818,-15.174784,-11.498335,5.5720596,-0.48735332,2.9694805,0.38074958,-0.31997,1.3001235,1.3290395,0.63570386,-0.087028086,0.2900833,1.9540452,1.5281254,1.1309779,-1.9715041,0.00068253366,0.1966133,-0.026442554,5.903931e-05,-9.646487,11.752094,0.4944012,0.35287288,0.1962148,0.095658295,inf,inf,inf,inf,1,1,1,1,4,3,4,3,3,1,1,1,0,0,0
312542197,312541729,42042859,60.1877325,24.832678599999998,-2.7189546,-15.233633,-10.9328785,5.5720596,-0.48735332,2.9694805,0.16963613,-0.011019405,1.1676731,1.1641381,0.63570386,-0.087028086,0.2900833,-0.23439617,2.299109,-0.33094826,-1.955599,0.0006845056,0.21301192,-0.026442554,6.2975174e-05,-9.646487,11.186638,0.5567253,0.36598653,0.23214485,0.0979262,inf,inf,inf,inf,1,1,1,1,4,3,4,3,3,1,1,1,0,0,1
313042189,313041729,42042859,60.1877325,24.832678599999998,-2.6561494,-15.212797,-10.362446,5.5720596,-0.48735332,2.9694805,0.12079629,-0.0010384416,1.2822589,1.2443507,0.63570386,-0.087028086,0.2900833,0.9217627,-0.77174145,-3.064456,-1.9314443,0.00068632833,0.2358275,-0.026442554,6.70178e-05,-9.646487,10.616205,0.64078325,0.38008267,0.2637075,0.099478446,inf,inf,inf,inf,1,1,1,1,4,3,4,3,3,1,1,1,0,0,1
313542184,313541729,42042859,60.1877325,24.832678599999998,-2.6313262,-15.238941,-9.825394,5.5720596,-0.48735332,2.9694805,0.03298352,-0.118744045,1.3057752,1.2137552,0.63570386,-0.087028086,0.2900833,1.3554571,-2.3739974,4.076298,-1.928144,0.00068833487,0.23857811,-0.026442554,7.112957e-05,-9.646487,10.079153,0.74597764,0.39682862,0.29570773,0.10083939,inf,inf,inf,inf,1,1,1,1,4,3,4,3,3,1,1,1,0,0,1
314042196,314041729,42042859,60.1877325,24.832678599999998,-2.6633012,-15.283291,-9.293471,5.5720596,-0.48735332,2.9694805,-0.084959164,-0.042053774,1.2744751,1.1286738,0.63570386,-0.087028086,0.2900833,-0.8546616,3.4823508,-0.05442743,-1.9348708,0.0006907441,0.232251,-0.026442554,7.5285396e-05,-9.646487,9.547231,0.8715241,0.41076466,0.3293319,0.10158944,inf,inf,inf,inf,1,1,1,1,4,3,4,3,3,1,1,1,0,0,1
314542209,314541729,42042859,60.1877325,24.832678599999998,-2.7081923,-15.296786,-8.800602,5.5720596,-0.48735332,2.9694805,-0.06901343,-0.02149372,1.245144,1.0575445,0.63570386,-0.087028086,0.2900833,-0.68910813,-0.5573607,-0.47639626,-1.9093544,0.0006935186,0.25697908,-0.026442554,7.946373e-05,-9.646487,9.054361,1.0171106,0.42359647,0.36452866,0.101901494,inf,inf,inf,inf,1,1,1,1,4,3,4,3,3,1,1,1,0,0,1
315042156,315041729,42042859,60.1877325,24.832678599999998,-2.7666793,-15.327143,-8.345621,5.5720596,-0.48735332,2.9694805,-0.14019215,-0.08693991,1.2203945,0.99292517,0.63570386,-0.087028086,0.2900833,-2.9526076,0.8657599,3.4886744,-1.9281663,0.0006965718,0.23988609,-0.026442554,8.36744e-05,-9.646487,8.5993805,1.1818907,0.43834355,0.39994127,0.102319345,inf,inf,inf,inf,1,1,1,1,4,3,4,3,3,1,1,1,0,0,1
315542207,315541729,42042859,60.1877325,24.832678599999998,-2.8384411,-15.388887,-7.9192977,5.5720596,-0.48735332,2.9694805,-0.18444787,-0.11016117,1.2004272,0.933533,0.63570386,-0.087028086,0.2900833,-1.5920761,-0.253952,1.5789648,-1.9941722,0.00069988513,0.1731618,-0.026442554,8.789056e-05,-9.646487,8.173058,1.3650786,0.4482745,0.43539798,0.102027416,inf,inf,inf,inf,1,1,1,1,4,3,4,3,3,1,1,1,0,0,1
316042193,316041729,42042859,60.1877325,24.832678599999998,-2.9473205,-15.414106,-7.504833,5.5720596,-0.48735332,2.9694805,-0.25212947,0.01228104,1.2189103,0.9153461,0.63570386,-0.087028086,0.2900833,-0.13199162,0.9874845,-2.8469064,-1.9927949,0.0007036116,0.17498904,-0.026442554,9.211675e-05,-9.646487,7.7585926,1.566572,0.45642918,0.472661,0.10162448,inf,inf,inf,inf,1,1,1,1,4,3,4,3,3,1,1,1,0,0,1
316542251,316541729,42042859,60.1877325,24.832678599999998,-3.0737195,-15.430685,-7.085542,5.5720596,-0.48735332,2.9694805,-0.37295675,-0.05417224,1.2709904,0.93241835,0.63570386,-0.087028086,0.2900833,-2.984229,-3.80641,-0.9183059,-1.9719677,0.00070760393,0.19540688,-0.026442554,9.634321e-05,-9.646487,7.3393016,1.7860515,0.46286225,1.0809722,0.101000585,inf,inf,inf,inf,0,1,0,1,4,3,4,3,3,1,1,1,0,0,1
317042161,317041729,42042859,60.1877325,24.832678599999998,-3.3365123,-15.421568,-6.679671,5.5720596,-0.48735332,2.9694805,-0.8053976,0.16054888,1.3026288,0.92481166,0.63570386,-0.087028086,0.2900833,-2.1183918,0.6157204,-0.14244187,-1.9557377,0.00071202207,0.21065465,-0.026442554,0.000100590456,-9.646487,6.93343,2.023193,0.4719258,1.2238543,0.10098783,inf,inf,inf,inf,0,1,0,1,4,3,4,3,3,1,1,1,0,0,1
318042229,318041729,42042859,60.1877325,24.832678599999998,-4.2204046,-15.29707,-5.8370495,5.5720596,-0.48735332,2.9694805,-0.76694655,0.06990727,1.4159757,0.9648636,0.63570386,-0.087028086,0.2900833,1.6506227,2.233314,1.0642489,-1.9769105,0.00072196784,0.19127685,-0.026442554,0.00010896352,-9.646487,6.090809,2.5505004,0.47789276,1.669382,0.09958739,inf,inf,inf,inf,0,1,0,1,4,3,4,3,3,1,1,1,0,0,1
318542201,318541729,42042859,60.1877325,24.832678599999998,-4.5336714,-15.309761,-5.3083806,5.5720596,-0.48735332,2.9694805,-0.60898453,-0.07815788,1.4897562,1.0525668,0.63570386,-0.087028086,0.2900833,-0.37654015,3.3810277,1.1261424,-1.9742786,0.00072737865,0.1944125,-0.026442554,0.0001130493,-9.646487,5.56214,2.8385985,0.48367164,1.8593391,0.099196896,inf,inf,inf,inf,0,1,0,1,4,3,4,3,3,1,1,1,0,0,1
319042179,319041730,42042859,60.1877325,24.832678599999998,-4.7378807,-15.364933,-4.8162446,5.5720596,-0.48735332,2.9694805,-0.39219126,-0.05209418,1.4750396,1.0267526,0.63570386,-0.087028086,0.2900833,3.45825,3.5561655,-1.9307762,-2.019306,0.0007331474,0.14978911,-0.026442554,0.000117085336,-9.646487,5.070004,3.142966,0.4840448,2.2136936,0.09840984,inf,inf,inf,inf,0,1,0,1,4,3,4,3,3,1,1,1,0,0,1
319542166,319541729,42042859,60.1877325,24.832678599999998,-4.8638473,-15.403384,-4.2643485,5.5720596,-0.48735332,2.9694805,-0.29482523,-0.10713626,1.4048557,1.0076071,0.63570386,-0.087028086,0.2900833,-0.776003,0.43261534,-3.7766974,-2.0355616,0.00073932443,0.1336907,-0.026442554,0.00012106927,-9.646487,4.518108,3.4645586,0.4836971,2.363785,0.09772889,inf,inf,inf,inf,0,1,0,1,4,3,4,3,3,1,1,1,0,0,1
320042196,320041729,42042859,60.1877325,24.832678599999998,-5.014557,-15.469941,-3.702624,5.5720596,-0.48735332,2.9694805,-0.53637457,-0.109348424,1.3389211,1.0048988,0.63570386,-0.087028086,0.2900833,-1.155429,0.11020164,3.174479,-2.013848,0.00074573973,0.1543086,-0.026442554,0.00012507754,-9.646487,3.9563835,3.803698,0.48744372,2.5291064,0.09769552,inf,inf,inf,inf,0,1,0,1,4,3,4,3,3,1,1,1,0,0,1
320542201,320541730,42042859,60.1877325,24.832678599999998,-5.3083353,-15.516073,-3.1659687,5.5720596,-0.48735332,2.9694805,-0.7301438,-0.008845943,1.2849717,0.99383986,0.63570386,-0.087028086,0.2900833,-2.2399266,3.6201096,-3.8432913,-1.9692584,0.0007526465,0.19851916,-0.026442554,0.00012909056,-9.646487,3.419728,4.16056,0.486201,2.7880151,0.09730202,inf,inf,inf,inf,0,1,0,1,4,3,4,3,3,1,1,1,0,0,1
321042157,321041729,42042859,60.1877325,24.832678599999998,-5.6019444,-15.532549,-2.6301022,5.5720596,-0.48735332,2.9694805,-0.37129122,-0.043732546,1.3003805,1.0257442,0.63570386,-0.087028086,0.2900833,-0.41226265,-5.626815,-4.973273,-1.8806046,0.00075989205,0.28863448,-0.026442554,0.0001329513,-9.646487,2.8838615,4.5342054,0.48471922,3.035226,0.09684028,inf,inf,inf,inf,0,1,0,1,4,3,4,3,3,1,1,1,0,0,1
321542199,321541729,42042859,60.1877325,24.832678599999998,-5.701369,-15.531948,-2.1339679,5.5720596,-0.48735332,2.9694805,-0.094084814,0.012212698,1.2638472,0.97903335,0.63570386,-0.087028086,0.2900833,4.364217,5.4071927,1.6754789,-1.8858798,0.0007676217,0.28556606,-0.026442554,0.00013663628,-9.646487,2.3877273,4.924506,0.48302206,3.1984959,0.09643916,inf,inf,inf,inf,0,1,0,1,4,3,4,3,3,1,1,1,0,0,1
322042244,322041729,42042859,60.1877325,24.832678599999998,-5.6990256,-15.570832,-1.6234739,5.5720596,-0.48735332,2.9694805,0.11306873,-0.13237432,1.2408987,0.9722105,0.63570386,-0.087028086,0.2900833,5.936321,-0.28809905,3.0788047,-1.9439236,0.0007755118,0.22793926,-0.026442554,0.00014034886,-9.646487,1.8772333,5.332275,0.48578328,3.5522473,0.09663548,inf,inf,inf,inf,0,1,0,1,4,3,4,3,3,1,1,1,0,0,1
322542205,322541729,42042859,60.1877325,24.832678599999998,-5.573123,-15.575214,-1.1623452,5.5720596,-0.48735332,2.9694805,0.42693126,0.15333118,1.0808929,0.8042069,0.63570386,-0.087028086,0.2900833,0.37678432,-1.1085193,-3.3728194,-1.9709347,0.0007840171,0.20269892,-0.026442554,0.00014394782,-9.646487,1.4161046,5.7576447,0.48385653,3.954286,0.09647592,inf,inf,inf,inf,0,1,0,1,4,3,4,3,3,1,1,1,0,0,1
323042222,323041729,42042859,60.1877325,24.832678599999998,-5.299254,-15.424864,-0.87539583,5.5720596,-0.48735332,2.9694805,0.6225294,0.41654527,0.72197336,0.43237722,0.63570386,-0.087028086,0.2900833,3.3499901,-1.8279718,-3.8964863,-2.0301366,0.00079273334,0.14379321,-0.026442554,0.00014753095,-9.646487,1.1291552,6.2028103,0.48193467,4.2326684,0.09644224,inf,inf,inf,inf,0,1,0,1,4,3,4,3,3,1,1,1,0,0,1
323542165,323541729,42042859,60.1877325,24.832678599999998,-4.9497657,-15.173831,-0.59379166,5.5720596,-0.48735332,2.9694805,0.80459934,0.5783187,0.57200056,0.3364989,0.63570386,-0.087028086,0.2900833,2.7904086,0.94477946,-0.036798608,-2.0258553,0.0008017561,0.14816299,-0.026442554,0.00015107082,-9.646487,0.84755105,6.6679378,0.48462823,4.5705314,0.09689746,inf,inf,inf,inf,0,1,0,1,4,3,4,3,3,1,1,1,0,0,1
324042199,324041729,42042859,60.1877325,24.832678599999998,-4.5036197,-14.852297,-0.43447238,5.5720596,-0.48735332,2.9694805,0.9607234,0.69512576,0.43427,0.2592074,0.63570386,-0.087028086,0.2900833,3.56512,0.40184808,0.712732,-1.9979988,0.0008111024,0.17607823,-0.026442554,0.00015453585,-9.646487,0.68823177,7.1524186,0.48280787,4.9329185,0.096926324,inf,inf,inf,inf,0,1,0,1,4,3,4,3,3,1,1,1,0,0,1
324542217,324541730,42042859,60.1877325,24.832678599999998,-4.0386233,-14.479895,-0.23704316,5.5720596,-0.48735332,2.9694805,1.0109917,0.79038584,0.3795972,0.26294044,0.63570386,-0.087028086,0.2900833,1.5088805,-0.13226432,-0.24307139,-1.9637436,0.00082079234,0.21067382,-0.026442554,0.0001579467,-9.646487,0.49080253,7.655418,0.4810719,5.290976,0.09684601,inf,inf,inf,inf,0,1,0,1,4,3,4,3,3,1,1,1,0,0,1
325042160,325041729,42042859,60.1877325,24.832678599999998,-3.5518937,-14.067889,-0.032267224,5.5720596,-0.48735332,2.9694805,1.0957491,0.8313521,0.43901792,0.3699058,0.63570386,-0.087028086,0.2900833,2.0396433,0.4050903,1.5275551,-1.9732636,0.00083086983,0.20106308,-0.026442554,0.00016126691,-9.646487,0.2860266,8.176526,0.4839481,5.6185703,0.0972627,inf,inf,inf,inf,0,1,0,1,4,3,4,3,3,1,1,1,0,0,1
325542166,325541729,42042859,60.1877325,24.832678599999998,-3.0198646,-13.635447,0.19394642,5.5720596,-0.48735332,2.9694805,1.0844417,0.95804656,0.4113097,0.374427,0.63570386,-0.087028086,0.2900833,-0.44212598,0.46692735,1.8519357,-1.9947399,0.0008412919,0.17945287,-0.026442554,0.00016453274,-9.646487,0.059812963,8.715606,0.4823467,6.058041,0.0971705,inf,inf,inf,inf,0,1,0,1,4,3,4,3,3,1,1,1,0,0,1
326042198,326041729,42042859,60.1877325,24.832678599999998,-2.5067172,-13.158479,0.39651138,5.5720596,-0.48735332,2.9694805,1.0046265,0.99982315,0.36203843,0.3388298,0.63570386,-0.087028086,0.2900833,-2.1051483,0.36257416,0.9741662,-1.9962764,0.0008521164,0.17778668,-0.026442554,0.00016774295,-9.646487,0.054284006,9.273318,0.4808128,6.437386,0.09707777,inf,inf,inf,inf,0,1,0,1,4,3,4,3,3,1,1,1,0,0,1
326542215,326541730,42042859,60.1877325,24.832678599999998,-2.0351975,-12.753276,0.58957124,5.5720596,-0.48735332,2.9694805,0.71181136,0.52441597,0.40781012,0.3887687,0.63570386,-0.087028086,0.2900833,-2.7688565,0.16259843,0.6819522,-1.9919297,0.0008626464,0.18224622,-0.026442554,0.00017092573,-9.646487,0.045660734,9.847394,0.48383158,6.866011,0.09709507,inf,inf,inf,inf,0,1,0,1,4,3,4,3,3,1,1,1,0,0,1
327042164,327041729,42042859,60.1877325,24.832678599999998,-1.6675011,-12.651206,0.75572664,5.5720596,-0.48735332,2.9694805,0.50081694,0.034458198,0.2916192,0.2739342,0.63570386,-0.087028086,0.2900833,-0.8396382,0.56562483,-0.026660603,-1.9903146,0.0008733676,0.1861546,-0.026442554,0.00017409872,-9.646487,0.058450222,10.436659,0.48224548,7.5645075,0.09679056,inf,inf,inf,inf,0,1,0,1,4,3,4,3,3,1,1,1,0,0,1
327542166,327541729,42042859,60.1877325,24.832678599999998,-1.4156061,-12.766513,0.9274791,5.5720596,-0.48735332,2.9694805,0.30486482,-0.2984918,0.36682522,0.34138542,0.63570386,-0.087028086,0.2900833,3.1704009,1.5979446,-2.1669867,-1.9988685,0.00088461273,0.17498413,-0.026442554,0.00017724688,-9.646487,0.032562256,11.042264,0.48065442,8.115807,0.096776076,inf,inf,inf,inf,0,1,0,1,4,3,4,3,3,1,1,1,0,0,1
328042226,328041729,42042859,60.1877325,24.832678599999998,-1.2797991,-13.063438,1.0449889,5.5720596,-0.48735332,2.9694805,0.10223939,-0.6217283,0.24258885,0.20173508,0.63570386,-0.087028086,0.2900833,0.13679302,-1.8204851,2.8356297,-1.9902643,0.0008964272,0.18562922,-0.026442554,0.00018036296,-9.646487,0.048677206,11.664542,0.47913748,8.716221,0.09687932,inf,inf,inf,inf,0,1,0,1,4,3,4,3,3,1,1,1,0,0,1
328542254,328541729,42042859,60.1877325,24.832678599999998,-1.284603,-13.497565,1.1068213,5.5720596,-0.48735332,2.9694805,-0.124379456,-0.75713265,0.17062172,0.114504166,0.63570386,-0.087028086,0.2900833,-2.0438287,-0.4287006,-2.1737711,-2.0243897,0.0009087156,0.14876194,-0.026442554,0.00018340572,-9.646487,0.06146586,12.303961,0.48218715,9.357274,0.09750817,inf,inf,inf,inf,0,1,0,1,4,3,4,3,3,1,1,1,0,0,1
329042168,329041729,42042859,60.1877325,24.832678599999998,-1.3839169,-13.9680605,1.1544906,5.5720596,-0.48735332,2.9694805,-0.16420954,-0.71166825,0.14081681,0.075839184,0.63570386,-0.087028086,0.2900833,-1.700218,-0.21957353,0.12137946,-2.000392,0.00092157995,0.17393656,-0.026442554,0.00018634205,-9.646487,0.06422067,12.961149,0.4808144,10.114931,0.09743655,inf,inf,inf,inf,0,1,0,1,4,3,4,3,3,1,1,1,0,0,1
329542183,329541729,42042859,60.1877325,24.832678599999998,-1.4999945,-14.385314,1.1627487,5.5720596,-0.48735332,2.9694805,-0.12789586,-0.78024954,0.13042268,0.062436312,0.63570386,-0.087028086,0.2900833,-0.1706389,2.2170098,1.6918188,-2.002954,0.0009349601,0.17314519,-0.026442554,0.00018910592,-9.646487,0.08357537,13.636554,0.47951266,10.682218,0.09725693,inf,inf,inf,inf,0,1,0,1,4,3,4,3,3,1,1,1,0,0,1
330042199,330041729,42042859,60.1877325,24.832678599999998,-1.4886066,-14.851978,1.1737934,5.5720596,-0.48735332,2.9694805,0.10118037,-1.0739957,-0.02456736,-0.0888952,0.63570386,-0.087028086,0.2900833,1.3351936,-0.3409488,-0.9278471,-2.0150564,0.0009485263,0.16305254,-0.026442554,0.00019183497,-9.646487,0.09892893,14.330197,0.48276606,11.412409,0.097835675,inf,inf,inf,inf,0,1,0,1,4,3,4,3,3,1,1,1,0,0,1
330542198,330541729,42042859,60.1877325,24.832678599999998,-1.3777838,-15.427772,1.1420515,5.5720596,-0.48735332,2.9694805,0.25573283,-1.173865,0.047581147,-0.01905319,0.63570386,-0.087028086,0.2900833,2.9121761,-1.0691153,1.5659025,-2.007273,0.0009625326,0.17276773,-0.026442554,0.00019448825,-9.646487,0.1306709,15.04317,0.4815735,12.176937,0.09784411,inf,inf,inf,inf,0,1,0,1,4,3,4,3,3,1,1,1,0,0,1
331042158,331041729,42042859,60.1877325,24.832678599999998,-1.1561365,-16.040508,1.1054099,5.5720596,-0.48735332,2.9694805,0.62831616,-1.3172851,0.0024276143,-0.0721339,0.63570386,-0.087028086,0.2900833,2.0906408,0.078254685,-0.7369356,-2.0205107,0.0009769101,0.16074315,-0.026442554,0.00019697446,-9.646487,0.1673125,15.775214,0.48042193,13.032439,0.09805305,inf,inf,inf,inf,0,1,0,1,4,3,4,3,3,1,1,1,0,0,1
331542167,331541730,42042859,60.1877325,24.832678599999998,-0.8175366,-16.685743,1.0820199,5.5720596,-0.48735332,2.9694805,0.6855474,-1.1964564,0.096241884,0.013721322,0.63570386,-0.087028086,0.2900833,1.3158901,0.8305703,1.280486,-2.0015297,0.0009915933,0.17956926,-0.026442554,0.0001995208,-9.646487,0.19070244,16.527817,0.48382112,13.983008,0.09817344,inf,inf,inf,inf,0,1,0,1,4,3,4,3,3,1,1,1,0,0,1
332042194,332041729,42042859,60.1877325,24.832678599999998,-0.47152087,-17.301579,1.1023748,5.5720596,-0.48735332,2.9694805,0.86072624,-1.1582216,0.009744888,-0.054551154,0.63570386,-0.087028086,0.2900833,-0.5368017,-1.0201775,-0.63337255,-1.9786981,0.0010065875,0.20250303,-0.026442554,0.00020201605,-9.646487,0.17034757,17.299639,0.48265195,15.022534,0.0979852,inf,inf,inf,inf,0,1,0,1,4,3,4,3,3,1,1,1,0,0,1
332542215,332541729,42042859,60.1877325,24.832678599999998,-0.0466642,-17.860521,1.0727985,5.5720596,-0.48735332,2.9694805,0.86052907,-0.96420884,-0.013453315,-0.06749494,0.63570386,-0.087028086,0.2900833,-2.8488448,-0.33268747,0.73866004,-2.0006793,0.001021858,0.18059935,-0.026442554,0.00020447464,-9.646487,0.19992387,18.091959,0.4814488,15.93723,0.097656265,inf,inf,inf,inf,0,1,0,1,4,3,4,3,3,1,1,1,0,0,1
333042312,333041729,42042859,60.1877325,24.832678599999998,0.34364069,-18.42827,1.057747,5.5720596,-0.48735332,2.9694805,0.8477323,-0.86708087,0.10207826,0.037945952,0.63570386,-0.087028086,0.2900833,-0.5393232,-0.68579036,0.24900344,-1.9980419,0.0010344726,0.18380228,-0.026442554,0.00020603414,-9.646487,0.21497536,18.882568,0.48016945,1.8981277,0.09728252,inf,inf,inf,inf,0,1,0,1,4,3,4,3,3,1,1,1,0,0,1
333542282,333541730,42042859,60.1877325,24.832678599999998,0.7600132,-18.900234,1.08504,5.5720596,-0.48735332,2.9694805,0.8790528,-1.1940337,0.10960671,0.04604558,0.63570386,-0.087028086,0.2900833,-1.9314263,1.0751334,0.5707418,-2.0153823,0.0010471372,0.16112398,-0.026442554,0.00020781306,-9.646487,0.18768239,19.69524,0.48338604,1.9394027,0.097746015,inf,inf,inf,inf,0,1,0,1,4,3,4,3,3,1,1,1,0,0,1
334042191,334041729,42042859,60.1877325,24.832678599999998,1.2303877,-19.359272,1.0680398,5.5720596,-0.48735332,2.9694805,0.6956526,-1.2731875,-0.041846905,-0.092373684,0.63570386,-0.087028086,0.2900833,-0.5012372,1.5073204,1.140008,-1.9596238,0.0010604934,0.2166803,-0.026442554,0.0002100558,-9.646487,0.20468259,20.534634,0.4821486,1.9810247,0.09767907,inf,inf,inf,inf,0,1,0,1,4,3,4,3,3,1,1,1,0,0,1
334542388,334541729,42042859,60.1877325,24.832678599999998,1.5820754,-19.92978,1.0845417,5.5720596,-0.48735332,2.9694805,0.69545335,-1.415031,0.10156821,0.066083714,0.63570386,-0.087028086,0.2900833,-0.6990236,1.6999831,-1.0425024,-1.9366146,0.0010731532,0.23891854,-0.026442554,0.000211478,-9.646487,0.18818069,21.373129,0.48091915,2.018722,0.09756314,inf,inf,inf,inf,0,1,0,1,4,3,4,3,3,1,1,1,0,0,1
335042204,335041729,42042859,60.1877325,24.832678599999998,1.913151,-20.500885,1.0800533,5.5720596,-0.48735332,2.9694805,0.6982402,-1.6322987,-0.06890778,-0.09874946,0.63570386,-0.087028086,0.2900833,2.1658654,-2.0515618,-1.6402254,-1.9542141,0.0010867879,0.221422,-0.026442554,0.00021346379,-9.646487,0.19266903,22.24222,0.48423874,2.0609772,0.098103546,inf,inf,inf,inf,0,1,0,1,4,3,4,3,3,1,1,1,0,0,1
335542156,335541730,42042859,60.1877325,24.832678599999998,2.232598,-21.23602,1.0315741,5.5720596,-0.48735332,2.9694805,0.70374525,-1.7849901,-0.27925158,-0.30018693,0.63570386,-0.087028086,0.2900833,2.27288,5.7735653,-5.9884133,-1.9447097,0.0011005293,0.2308584,-0.026442554,0.0002153523,-9.646487,0.24114823,23.127666,0.4830334,2.1030886,0.0980938,inf,inf,inf,inf,0,1,0,1,4,3,4,3,3,1,1,1,0,0,1
336042151,336041729,42042859,60.1877325,24.832678599999998,2.6573353,-22.094704,0.8087523,5.5720596,-0.48735332,2.9694805,0.84290385,-1.869435,-0.41645285,-0.4284816,0.63570386,-0.087028086,0.2900833,1.1578159,0.8525502,4.1021223,-1.919513,0.0011156586,0.25598133,-0.026442554,0.00021783222,-9.646487,0.46397007,24.049805,0.48184317,2.1535506,0.098060265,inf,inf,inf,inf,0,1,0,1,4,3,4,3,3,1,1,1,0,0,1
336542199,336541729,42042859,60.1877325,24.832678599999998,2.9491062,-23.084179,0.78198713,5.5720596,-0.48735332,2.9694805,0.9893552,-1.844153,-0.060121316,-0.06639172,0.63570386,-0.087028086,0.2900833,-0.6672022,-1.7229193,1.3299582,-1.8343707,0.0011305894,0.34108174,-0.026442554,0.00021969927,-9.646487,0.49073523,24.980118,0.4851933,2.1914163,0.09827807,inf,inf,inf,inf,0,1,0,1,4,3,4,3,3,1,1,1,0,0,1
337042191,337041729,42042859,60.1877325,24.832678599999998,3.3075964,-23.975395,0.7738054,5.5720596,-0.48735332,2.9694805,1.1493994,-1.8487306,0.12916291,0.12592523,0.63570386,-0.087028086,0.2900833,1.1957088,0.0061269174,0.33484605,-1.7653869,0.001146124,0.41005173,-0.026442554,0.00022161796,-9.646487,0.49891698,25.93326,0.48391905,2.2394538,0.098056756,inf,inf,inf,inf,0,1,0,1,4,3,4,3,3,1,1,1,0,0,1
337542314,337541729,42042859,60.1877325,24.832678599999998,3.6765919,-24.76721,0.8492411,5.5720596,-0.48735332,2.9694805,1.2454351,-1.903841,0.30662885,0.30474016,0.63570386,-0.087028086,0.2900833,-0.03795577,0.72812086,0.64549726,-1.7835639,0.0011605598,0.39156017,-0.026442554,0.00022279209,-9.646487,0.4234813,26.885012,0.48261085,2.2797909,0.09789406,inf,inf,inf,inf,0,1,0,1,4,3,4,3,3,1,1,1,0,0,1
338042190,338041729,42042859,60.1877325,24.832678599999998,3.8147824,-25.627735,0.82268685,5.5720596,-0.48735332,2.9694805,0.41871512,-1.8158444,-0.08304048,-0.08425073,0.63570386,-0.087028086,0.2900833,-2.5288017,2.0351076,0.70595276,-1.6552664,0.0011762575,0.5254956,-0.026442554,0.00022443943,-9.646487,0.4500355,27.871342,0.48125553,2.3182607,0.09739715,inf,inf,inf,inf,0,1,0,1,4,3,4,3,3,1,1,1,0,0,1
338542191,338541729,42042859,60.1877325,24.832678599999998,3.448994,-26.155046,0.79194593,5.5720596,-0.48735332,2.9694805,0.53731734,-1.7056073,-0.06595998,-0.07752747,0.63570386,-0.087028086,0.2900833,2.0051134,-1.7804732,1.1326815,-1.680385,0.0011927558,0.4726181,-0.026442554,0.00022609308,-9.646487,0.48077643,28.88446,0.48431724,2.351935,0.09764123,inf,inf,inf,inf,0,1,0,1,4,3,4,3,3,1,1,1,0,0,1
339542313,339541729,42042859,60.1877325,24.832678599999998,3.3493297,-28.011427,0.7063037,5.5720596,-0.48735332,2.9694805,0.37354094,-1.8077425,-0.08644762,-0.09346175,0.63570386,-0.087028086,0.2900833,0.27755898,-1.4128736,-2.2419262,-1.6782975,0.0012250786,0.47382274,-0.026442554,0.00022981092,-9.646487,0.56641865,30.955286,0.48131728,2.4466832,0.0970993,inf,inf,inf,inf,0,1,0,1,4,3,4,3,3,1,1,1,0,0,1
340042312,340041729,42042859,60.1877325,24.832678599999998,3.1267817,-28.931623,0.66258955,5.5720596,-0.48735332,2.9694805,0.32621598,-1.8391918,-0.08808454,-0.09198784,0.63570386,-0.087028086,0.2900833,-0.4541512,0.5405149,-1.7646075,-1.6782506,0.0012424461,0.47381985,-0.026442554,0.00023194104,-9.646487,0.6101328,32.031174,0.48437077,2.4913118,0.097350486,inf,inf,inf,inf,0,1,0,1,4,3,4,3,3,1,1,1,0,0,1
340542191,340541730,42042859,60.1877325,24.832678599999998,2.9599144,-29.856306,0.6178676,5.5720596,-0.48735332,2.9694805,0.27235702,-1.8674775,-0.087544836,-0.08960409,0.63570386,-0.087028086,0.2900833,-1.2837956,-1.0706761,0.7404209,-1.6901797,0.001258522,0.46181938,-0.026442554,0.00023337963,-9.646487,0.6548548,33.10405,0.4828585,2.5336192,0.09713536,inf,inf,inf,inf,0,1,0,1,4,3,4,3,3,1,1,1,0,0,1
341042316,341041729,42042859,60.1877325,24.832678599999998,2.7975852,-30.753983,0.57256913,5.5720596,-0.48735332,2.9694805,0.2579706,-1.923215,-0.09566466,-0.096758634,0.63570386,-0.087028086,0.2900833,0.20829335,-2.5261087,-1.4234724,-1.6862606,0.0012747699,0.46563715,-0.026442554,0.00023476304,-9.646487,0.70015323,34.19548,0.48138487,2.575398,0.096953005,inf,inf,inf,inf,0,1,0,1,4,3,4,3,3,1,1,1,0,0,1
341542339,341541729,42042859,60.1877325,24.832678599999998,2.6151857,-31.645592,0.52949715,5.5720596,-0.48735332,2.9694805,0.22649959,-1.9488708,-0.08596978,-0.086562,0.63570386,-0.087028086,0.2900833,2.6093204,1.4087584,-1.1628942,-1.686212,0.0012900931,0.46556443,-0.026442554,0.00023568943,-9.646487,0.7432252,35.29044,0.48445818,2.615599,0.09725328,inf,inf,inf,inf,0,1,0,1,4,3,4,3,3,1,1,1,0,0,1
342042281,342041729,42042859,60.1877325,24.832678599999998,2.3447776,-32.556103,0.48906466,5.5720596,-0.48735332,2.9694805,0.17489074,-1.9857126,-0.07529782,-0.075608596,0.63570386,-0.087028086,0.2900833,-0.55237293,-0.10213059,0.124571234,-1.6855444,0.0013056659,0.46610907,-0.026442554,0.00023671158,-9.646487,0.78365767,36.40632,0.48297486,2.6562455,0.097069465,inf,inf,inf,inf,0,1,0,1,4,3,4,3,3,1,1,1,0,0,1
342542197,342541729,42042859,60.1877325,24.832678599999998,2.0298538,-33.46712,0.45123437,5.5720596,-0.48735332,2.9694805,0.12728496,-2.0162287,-0.072779045,-0.072947845,0.63570386,-0.087028086,0.2900833,-0.4228513,-0.39724204,-0.69675547,-1.6856529,0.0013227132,0.46588933,-0.026442554,0.00023831896,-9.646487,0.821488,37.561554,0.48149756,2.6992707,0.0968932,inf,inf,inf,inf,0,1,0,1,4,3,4,3,3,1,1,1,0,0,1
343042219,343041729,42042859,60.1877325,24.832678599999998,1.7291507,-34.413628,0.4146157,5.5720596,-0.48735332,2.9694805,0.08155601,-2.0431173,-0.07691643,-0.07698329,0.63570386,-0.087028086,0.2900833,-0.08909773,-0.27117014,-2.3471417,-1.6858803,0.001339675,0.46559793,-0.026442554,0.00023983137,-9.646487,0.8581067,38.733025,0.4800255,2.7419472,0.09672268,inf,inf,inf,inf,0,1,0,1,4,3,4,3,3,1,1,1,0,0,1
343542152,343541729,42042859,60.1877325,24.832678599999998,1.4230912,-35.36878,0.37740192,5.5720596,-0.48735332,2.9694805,0.037712,-2.0753102,-0.08445253,-0.08446413,0.63570386,-0.087028086,0.2900833,0.16608714,-0.4954694,0.09469636,-1.6862121,0.0013581569,0.46518335,-0.026442554,0.0002418725,-9.646487,0.8953204,39.944565,0.48308188,2.78681,0.09702985,inf,inf,inf,inf,0,1,0,1,4,3,4,3,3,1,1,1,0,0,1
344042159,344041729,42042859,60.1877325,24.832678599999998,1.1337911,-36.346767,0.33889857,5.5720596,-0.48735332,2.9694805,0.005965771,-2.0876062,-0.072597325,-0.07257015,0.63570386,-0.087028086,0.2900833,-2.1538222,-0.6210714,0.9915895,-1.6894974,0.0013775643,0.4618346,-0.026442554,0.00024417753,-9.646487,0.9338238,41.187263,0.48161253,2.8329427,0.096870236,inf,inf,inf,inf,0,1,0,1,4,3,4,3,3,1,1,1,0,0,1
344542338,344541729,42042859,60.1877325,24.832678599999998,0.9192902,-37.418346,0.29943985,5.5720596,-0.48735332,2.9694805,-0.041028265,-2.1525443,-0.07601285,-0.07590543,0.63570386,-0.087028086,0.2900833,1.6370963,1.1846169,-1.3059258,-1.6907641,0.0013966339,0.4604977,-0.026442554,0.00024619652,-9.646487,0.9732825,42.442463,0.48015186,2.8785396,0.09671323,inf,inf,inf,inf,0,1,0,1,4,3,4,3,3,1,1,1,0,0,1
345042205,345041751,42042859,60.1877325,24.832678599999998,0.71165305,-38.42255,0.26150653,5.5720596,-0.48735332,2.9694805,-0.082482025,-2.1958487,-0.0766164,-0.0765318,0.63570386,-0.087028086,0.2900833,-0.76708686,-0.77445483,1.023388,-1.6906794,0.0014154738,0.46045095,-0.026442554,0.00024802453,-9.646487,1.0112158,43.712337,0.48322922,2.922975,0.09704441,inf,inf,inf,inf,0,1,0,1,4,3,4,3,3,1,1,1,0,0,1
345542184,345541757,42042859,60.1877325,24.832678599999998,0.533254,-39.51247,0.22217365,5.5720596,-0.48735332,2.9694805,-0.10875032,-2.2209108,-0.07799685,-0.07788193,0.63570386,-0.087028086,0.2900833,-0.6900461,1.592698,0.2807166,-1.6902174,0.001434606,0.46085027,-0.026442554,0.00024989445,-9.646487,1.0505487,45.004784,0.48178095,2.968332,0.09688679,inf,inf,inf,inf,0,1,0,1,4,3,4,3,3,1,1,1,0,0,1
346042281,346041729,42042859,60.1877325,24.832678599999998,0.31734318,-40.54204,0.1833216,5.5720596,-0.48735332,2.9694805,-0.14629574,-2.273521,-0.078306414,-0.078220494,0.63570386,-0.087028086,0.2900833,-1.7719859,-0.6729606,2.9533346,-1.6911917,0.0014523523,0.45975357,-0.026442554,0.00025122263,-9.646487,1.0894008,46.29616,0.48034307,3.011686,0.096743315,inf,inf,inf,inf,0,1,0,1,4,3,4,3,3,1,1,1,0,0,1
346542185,346541729,42042859,60.1877325,24.832678599999998,0.11201357,-41.66787,0.141511,5.5720596,-0.48735332,2.9694805,-0.17899053,-2.3096874,-0.090114415,-0.08999176,0.63570386,-0.087028086,0.2900833,-0.5137606,0.924454,-3.6185913,-1.6912112,0.001473306,0.45965585,-0.026442554,0.00025357565,-9.646487,1.1312114,47.652054,0.48343584,3.0590603,0.09708499,inf,inf,inf,inf,0,1,0,1,4,3,4,3,3,1,1,1,0,0,1
347042191,347041729,42042859,60.1877325,24.832678599999998,-0.078940034,-42.851482,0.094518684,5.5720596,-0.48735332,2.9694805,-0.20171064,-2.352855,-0.08973999,-0.089589834,0.63570386,-0.087028086,0.2900833,1.0298644,-1.3889325,0.50871396,-1.6910801,0.0014933302,0.45979345,-0.026442554,0.00025553533,-9.646487,1.1782037,49.01369,0.4820347,3.1049857,0.09694368,inf,inf,inf,inf,0,1,0,1,4,3,4,3,3,1,1,1,0,0,1
347542277,347541729,42042859,60.1877325,24.832678599999998,-0.3178712,-43.97146,0.046418935,5.5720596,-0.48735332,2.9694805,-0.2430665,-2.3900285,-0.10237697,-0.102269754,0.63570386,-0.087028086,0.2900833,-1.0328223,-0.048834838,-1.5974934,-1.6898072,0.0015130074,0.46104917,-0.026442554,0.00025731832,-9.646487,1.2263035,50.389572,0.4806662,3.1506338,0.096816696,inf,inf,inf,inf,0,1,0,1,4,3,4,3,3,1,1,1,0,0,1
348042361,348041729,42042859,60.1877325,24.832678599999998,-0.6066803,-45.0176,-0.0002415326,5.5720596,-0.48735332,2.9694805,-0.2777055,-2.4247828,-0.08187227,-0.0818249,0.63570386,-0.087028086,0.2900833,0.39029136,-0.3419552,1.7651838,-1.68998,0.0015308836,0.46074945,-0.026442554,0.0002584989,-9.646487,1.2729639,51.759174,0.47930267,3.1935084,0.096686006,inf,inf,inf,inf,0,1,0,1,4,3,4,3,3,1,1,1,0,0,1
348542216,348541729,42042859,60.1877325,24.832678599999998,-0.9465307,-46.055355,-0.045669094,5.5720596,-0.48735332,2.9694805,-0.3268501,-2.4499528,-0.10162079,-0.10161424,0.63570386,-0.087028086,0.2900833,-0.5807368,0.22252928,-2.4414864,-1.6899977,0.0015501907,0.46061718,-0.026442554,0.00026012753,-9.646487,1.3183914,53.168407,0.48244694,3.238455,0.097022295,inf,inf,inf,inf,0,1,0,1,4,3,4,3,3,1,1,1,0,0,1
349042202,349041729,42042859,60.1877325,24.832678599999998,-1.3649256,-47.06442,-0.091441296,5.5720596,-0.48735332,2.9694805,-0.37627107,-2.4750435,-0.092921175,-0.09294379,0.63570386,-0.087028086,0.2900833,-0.014271447,-0.19461524,0.33444586,-1.6904477,0.0015698678,0.460058,-0.026442554,0.00026183366,-9.646487,1.3641636,54.60213,0.4810806,3.2839334,0.09688631,inf,inf,inf,inf,0,1,0,1,4,3,4,3,3,1,1,1,0,0,1
349542180,349541729,42042859,60.1877325,24.832678599999998,-1.7676327,-48.12574,-0.13615502,5.5720596,-0.48735332,2.9694805,-0.4241708,-2.5085697,-0.087861985,-0.08788524,0.63570386,-0.087028086,0.2900833,-0.050978374,-0.92550635,-0.63805497,-1.6909149,0.0015886688,0.45949784,-0.026442554,0.00026323044,-9.646487,1.4088774,56.042694,0.47971678,3.3279688,0.096747205,inf,inf,inf,inf,0,1,0,1,4,3,4,3,3,1,1,1,0,0,1
350042267,350041729,42042859,60.1877325,24.832678599999998,-2.1164315,-49.164806,-0.1771954,5.5720596,-0.48735332,2.9694805,-0.46676785,-2.5364718,-0.07597651,-0.076035514,0.63570386,-0.087028086,0.2900833,0.38308346,-0.40946516,0.8988322,-1.6910648,0.0016058988,0.45921475,-0.026442554,0.00026413336,-9.646487,1.4499178,57.479958,0.4828696,3.3698847,0.09708511,inf,inf,inf,inf,0,1,0,1,4,3,4,3,3,1,1,1,0,0,1
350542319,350541729,42042859,60.1877325,24.832678599999998,-2.4573958,-50.233234,-0.2130725,5.5720596,-0.48735332,2.9694805,-0.5096116,-2.5659676,-0.06693026,-0.06700351,0.63570386,-0.087028086,0.2900833,-0.2374885,-0.054967362,1.2064669,-1.6913023,0.0016238306,0.45884725,-0.026442554,0.0002652483,-9.646487,1.4857949,58.946228,0.48149952,3.4127364,0.09695231,inf,inf,inf,inf,0,1,0,1,4,3,4,3,3,1,1,1,0,0,1
351042182,351041729,42042859,60.1877325,24.832678599999998,-2.7982357,-51.337753,-0.24603531,5.5720596,-0.48735332,2.9694805,-0.551926,-2.5981445,-0.07296547,-0.073034115,0.63570386,-0.087028086,0.2900833,-0.31945103,0.5633516,-3.7987213,-1.6915683,0.0016439047,0.45844328,-0.026442554,0.00026697302,-9.646487,1.5187577,60.46242,0.4801336,3.4583504,0.09681399,inf,inf,inf,inf,0,1,0,1,4,3,4,3,3,1,1,1,0,0,1
351542155,351541729,42042859,60.1877325,24.832678599999998,-3.1657917,-52.540512,-0.27946365,5.5720596,-0.48735332,2.9694805,-0.5938256,-2.637834,-0.057760615,-0.05777753,0.63570386,-0.087028086,0.2900833,-0.48369527,-1.0132974,2.5514355,-1.6916121,0.0016675979,0.45832038,-0.026442554,0.00026968188,-9.646487,1.552186,62.050106,0.48328426,3.5088806,0.097145,inf,inf,inf,inf,0,1,0,1,4,3,4,3,3,1,1,1,0,0,1
352042269,352041729,42042859,60.1877325,24.832678599999998,-3.5171056,-53.794975,-0.3117267,5.5720596,-0.48735332,2.9694805,-0.62753713,-2.6715035,-0.063074425,-0.06306895,0.63570386,-0.087028086,0.2900833,-0.3567453,-0.074480794,-0.33053836,-1.6922412,0.0016890051,0.45765796,-0.026442554,0.0002716701,-9.646487,1.584449,63.62518,0.48191082,3.5564053,0.09700342,inf,inf,inf,inf,0,1,0,1,4,3,4,3,3,1,1,1,0,0,1
352542321,352541729,42042859,60.1877325,24.832678599999998,-3.84113,-54.9946,-0.34073845,5.5720596,-0.48735332,2.9694805,-0.6622505,-2.705329,-0.062720194,-0.062755145,0.63570386,-0.087028086,0.2900833,0.10487397,-0.15980075,0.12785214,-1.6923969,0.0017067419,0.4574068,-0.026442554,0.0002726122,-9.646487,1.6134608,65.16721,0.48053807,3.59912,0.09686684,inf,inf,inf,inf,0,1,0,1,4,3,4,3,3,1,1,1,0,0,1
353042326,353041729,42042859,60.1877325,24.832678599999998,-4.20574,-56.202496,-0.369319,5.5720596,-0.48735332,2.9694805,-0.6967267,-2.7336905,-0.055511054,-0.05557095,0.63570386,-0.087028086,0.2900833,1.6501062,0.039408803,-0.2540784,-1.6928283,0.0017279836,0.45689657,-0.026442554,0.00027450456,-9.646487,1.6420413,66.779274,0.48369306,3.6463788,0.09719417,inf,inf,inf,inf,0,1,0,1,4,3,4,3,3,1,1,1,0,0,1
353542270,353541729,42042859,60.1877325,24.832678599999998,-4.5694375,-57.39301,-0.39558512,5.5720596,-0.48735332,2.9694805,-0.73323274,-2.7708755,-0.047848348,-0.04793431,0.63570386,-0.087028086,0.2900833,0.7052361,-0.15378235,0.36045617,-1.6931055,0.0017454552,0.4564931,-0.026442554,0.00027534977,-9.646487,1.6683075,68.35658,0.48232478,3.6891718,0.09705502,inf,inf,inf,inf,0,1,0,1,4,3,4,3,3,1,1,1,0,0,1
354042274,354041729,42042859,60.1877325,24.832678599999998,-4.9285927,-58.58837,-0.41875035,5.5720596,-0.48735332,2.9694805,-0.77047116,-2.8095863,-0.04333032,-0.04344191,0.63570386,-0.087028086,0.2900833,0.070681706,-0.4321181,-0.054922275,-1.6929823,0.0017629336,0.45647854,-0.026442554,0.00027620635,-9.646487,1.6914728,69.953186,0.48099533,3.7316124,0.096925505,inf,inf,inf,inf,0,1,0,1,4,3,4,3,3,1,1,1,0,0,1
354542435,354541729,42042859,60.1877325,24.832678599999998,-5.3398666,-59.757187,-0.43945944,5.5720596,-0.48735332,2.9694805,-0.8104951,-2.8347003,-0.04162865,-0.04175943,0.63570386,-0.087028086,0.2900833,-0.083770774,-0.15333433,-0.08690302,-1.6904782,0.0017803833,0.4588255,-0.026442554,0.00027708855,-9.646487,1.7121818,71.56897,0.47966483,3.7743433,0.09678863,inf,inf,inf,inf,0,1,0,1,4,3,4,3,3,1,1,1,0,0,1
355042301,355041729,42042859,60.1877325,24.832678599999998,-5.7830424,-60.9627,-0.46089435,5.5720596,-0.48735332,2.9694805,-0.8530209,-2.8659966,-0.043664284,-0.0437969,0.63570386,-0.087028086,0.2900833,-0.0072652292,-0.11671051,-0.00086232024,-1.6906444,0.0017978168,0.45854968,-0.026442554,0.00027800963,-9.646487,1.7336167,73.2041,0.4828443,3.8170445,0.0971236,inf,inf,inf,inf,0,1,0,1,4,3,4,3,3,1,1,1,0,0,1
355542322,355541731,42042859,60.1877325,24.832678599999998,-6.1831026,-62.175434,-0.483474,5.5720596,-0.48735332,2.9694805,-0.8911031,-2.8938775,-0.04568089,-0.0458542,0.63570386,-0.087028086,0.2900833,-0.098569766,-0.07043702,-0.008448526,-1.6906652,0.0018152172,0.4584268,-0.026442554,0.00027894464,-9.646487,1.7561964,74.85796,0.4814957,3.859838,0.09698346,inf,inf,inf,inf,0,1,0,1,4,3,4,3,3,1,1,1,0,0,1
