timestamp,timestamp_sample,ref_timestamp,ref_lat,ref_lon,x,y,z,delta_xy[0],delta_xy[1],delta_z,vx,vy,vz,z_deriv,delta_vxy[0],delta_vxy[1],delta_vz,ax,ay,az,heading,heading_var,unaided_heading,delta_heading,tilt_var,ref_alt,dist_bottom,eph,epv,evh,evv,vxy_max,vz_max,hagl_min,hagl_max,xy_valid,z_valid,v_xy_valid,v_z_valid,xy_reset_counter,z_reset_counter,vxy_reset_counter,vz_reset_counter,heading_reset_counter,heading_good_for_control,xy_global,z_global,dist_bottom_valid,dist_bottom_sensor_bitfield,dead_reckoning
200543960,200543649,42042860,60.1877325,24.832678599999998,0.044576548,-0.9838985,-3.1123836,0.22263904,0.116216525,-4.172325e-07,-0.00035099263,-0.012577697,0.03175233,0.057414114,-0.025598146,0.051155806,0.014507944,-0.100163944,-0.15402685,-0.056240764,-2.181374,0.050064493,-0.004570925,0.0065030004,6.515291e-05,-9.697216,0.094623804,0.23995483,0.22704144,0.10834228,0.06463104,inf,inf,inf,inf,1,1,1,1,3,2,3,2,2,0,1,1,1,0,0
201044011,201043648,42042860,60.1877325,24.832678599999998,0.042442683,-0.9923727,-3.0843782,0.22263904,0.116216525,-4.172325e-07,-0.0015640971,-0.009784699,0.034592416,0.05818346,-0.025598146,0.051155806,0.014507944,-0.011438252,-0.0013194499,-0.19404384,-2.1809123,0.05006198,-0.004542303,0.0065030004,6.51633e-05,-9.697216,0.09177065,0.24031964,0.22769539,0.10838039,0.06468643,inf,inf,inf,inf,1,1,1,1,3,2,3,2,2,0,1,1,1,0,0
201543924,201543648,42042860,60.1877325,24.832678599999998,0.03622912,-0.9996703,-3.0570483,0.22263904,0.116216525,-4.172325e-07,-0.005840485,-0.009831246,0.038284812,0.05905839,-0.025598146,0.051155806,0.014507944,0.1671595,0.10340412,-0.18201265,-2.1803536,0.05006027,-0.0045063896,0.0065030004,6.516998e-05,-9.697216,0.08968973,0.24064963,0.22785829,0.10838556,0.064685464,inf,inf,inf,inf,1,1,1,1,3,2,3,2,2,0,1,1,1,0,0
202043934,202043647,42042860,60.1877325,24.832678599999998,0.031429157,-1.0023396,-3.0369442,0.22263904,0.116216525,-4.172325e-07,-0.010621289,-0.0047442564,0.038932435,0.051575728,-0.025598146,0.051155806,0.014507944,-0.16273911,0.17864509,0.2042716,-2.1800048,0.05005767,-0.0045459056,0.0065030004,6.5187436e-05,-9.697216,0.08534598,0.24098574,0.22801203,0.10842696,0.06468868,inf,inf,inf,inf,1,1,1,1,3,2,3,2,2,0,1,1,1,0,0
202543929,202543647,42042860,60.1877325,24.832678599999998,0.022270866,-1.0057089,-3.0179691,0.22263904,0.116216525,-4.172325e-07,-0.014165233,-0.0020863004,0.0399827,0.047947418,-0.025598146,0.051155806,0.014507944,-0.043349747,0.035112903,0.14800923,-2.1796174,0.050050642,-0.004560594,0.0065030004,6.518694e-05,-9.697216,0.08915973,0.24124667,0.22860225,0.10839271,0.06472805,inf,inf,inf,inf,1,1,1,1,3,2,3,2,2,0,1,1,1,0,0
203043938,203043647,42042860,60.1877325,24.832678599999998,0.012680149,-1.0094972,-2.9991772,0.22263904,0.116216525,-4.172325e-07,-0.015637364,0.000533521,0.03959461,0.04435438,-0.025598146,0.051155806,0.014507944,0.0101987915,-0.088997915,0.20982042,-2.1792617,0.050044402,-0.0046016746,0.0065030004,6.5208806e-05,-9.697216,0.090854645,0.24153174,0.22870535,0.10844299,0.064728454,inf,inf,inf,inf,1,1,1,1,3,2,3,2,2,0,1,1,1,0,0
203543927,203543648,42042860,60.1877325,24.832678599999998,0.0012751955,-1.016489,-2.9782622,0.22263904,0.116216525,-4.172325e-07,-0.016818905,0.000306003,0.04137735,0.045503873,-0.025598146,0.051155806,0.014507944,0.09268361,-0.07160776,-0.057969436,-2.1787026,0.05003747,-0.0046702963,0.0065030004,6.520185e-05,-9.697216,0.091094494,0.24173872,0.22876604,0.10838021,0.06471113,inf,inf,inf,inf,1,1,1,1,3,2,3,2,2,0,1,1,1,0,0
204043934,204043648,42042860,60.1877325,24.832678599999998,-0.010901091,-1.0167024,-2.9527545,0.22263904,0.116216525,-4.172325e-07,-0.027035614,0.006963702,0.04412927,0.05122399,-0.025598146,0.051155806,0.014507944,-0.39920416,0.7389642,0.85720104,-2.1782355,0.050029796,-0.0046034674,0.0065030004,6.522401e-05,-9.697216,0.09567666,0.24203381,0.22936504,0.10844225,0.06476602,inf,inf,inf,inf,1,1,1,1,3,2,3,2,2,0,1,1,1,0,0
204543926,204543647,42042860,60.1877325,24.832678599999998,-0.020742381,-1.0058135,-2.922802,0.22263904,0.116216525,-4.172325e-07,-0.029290035,0.013128033,0.039448943,0.049472455,-0.025598146,0.051155806,0.014507944,-0.026831854,1.5015124,-2.7646415,-2.1784072,0.050008375,-0.0046705846,0.0065030004,6.5246146e-05,-9.697216,0.09257078,0.2422872,0.2294667,0.10850239,0.06476393,inf,inf,inf,inf,1,1,1,1,3,2,3,2,2,0,1,1,0,0,0
205043926,205043648,42042860,60.1877325,24.832678599999998,-0.022341106,-1.0081,-2.903078,0.22263904,0.116216525,-4.172325e-07,-0.02819106,0.013149196,0.025366561,0.03159663,-0.025598146,0.051155806,0.014507944,-3.2170556,0.62149924,-0.20613539,-2.1780052,0.04998366,-0.004686275,0.0065030004,6.526688e-05,-9.697216,0.09050965,0.24251474,0.22953866,0.108572416,0.06475852,inf,inf,inf,inf,1,1,1,1,3,2,3,2,2,0,1,1,0,0,0
205543955,205543648,42042860,60.1877325,24.832678599999998,-0.004355336,-1.0221529,-2.912433,0.22263904,0.116216525,-4.172325e-07,0.11297345,-0.054899562,-0.075788505,-0.076959826,-0.025598146,0.051155806,0.014507944,1.1170923,0.23885523,-2.3214521,-2.1725817,0.049931467,0.00045673267,0.0065030004,6.525246e-05,-9.697216,0.106036186,0.24273595,0.22960648,0.109005705,0.06475341,inf,inf,inf,inf,1,1,1,1,3,2,3,2,2,0,1,1,0,0,0
206043925,206043648,42042860,60.1877325,24.832678599999998,0.086201765,-1.0566666,-3.0294323,0.22263904,0.116216525,-4.172325e-07,0.19472672,-0.03295239,-0.35786977,-0.35797024,-0.025598146,0.051155806,0.014507944,-0.9124069,0.25572518,-0.83029795,-2.104455,0.04719683,0.062946245,0.0065030004,6.4972264e-05,-9.697216,0.22303557,0.24290155,0.23014656,0.114542134,0.064792134,inf,inf,inf,inf,1,1,1,1,3,2,3,2,2,0,1,1,0,0,0
207043963,207043648,42042860,60.1877325,24.832678599999998,0.19100502,-1.0339046,-3.5782976,0.22263904,0.116216525,-4.172325e-07,-0.06616681,0.04993637,-0.79421645,-0.77495325,-0.025598146,0.051155806,0.014507944,1.0983319,1.3029547,-2.4977143,-2.0474792,0.04171905,0.108663395,0.0065030004,6.4083724e-05,-9.697216,0.7719009,0.24328934,0.23014699,0.11202575,0.06477182,inf,inf,inf,inf,1,1,1,1,3,2,3,2,2,0,1,1,0,0,0
207543929,207543648,42042860,60.1877325,24.832678599999998,0.13422745,-1.0307487,-3.9943113,0.22263904,0.116216525,-4.172325e-07,-0.17092581,0.05689223,-0.9501576,-0.9247169,-0.025598146,0.051155806,0.014507944,1.8583006,0.007661148,-2.2736843,-2.0664167,0.037710488,0.080097005,0.0065030004,6.3561776e-05,-9.697216,1.1879146,0.24347852,0.23060815,0.114414245,0.06482279,inf,inf,inf,inf,1,1,1,1,3,2,3,2,2,0,1,1,0,0,0
208043926,208043647,42042860,60.1877325,24.832678599999998,0.04347648,-1.0113642,-4.4928617,0.22263904,0.116216525,-4.172325e-07,-0.17772432,0.07562856,-1.0983517,-1.0716119,-0.025598146,0.051155806,0.014507944,-1.8468165,0.39641097,0.3846326,-2.1383767,0.034033947,-0.0015996962,0.0065030004,6.3400046e-05,-9.697216,1.686465,0.24375886,0.23058511,0.11471074,0.06484708,inf,inf,inf,inf,1,1,1,1,3,2,3,2,2,0,1,1,0,0,0
208543928,208543648,42042860,60.1877325,24.832678599999998,-0.0053879917,-0.9978034,-5.0516176,0.22263904,0.116216525,-4.172325e-07,-0.09118806,-0.018568441,-1.1737128,-1.1519302,-0.025598146,0.051155806,0.014507944,-0.28891826,2.8422012,-3.2799733,-2.2162771,0.06621367,-0.049944874,-0.03642802,6.330411e-05,-9.697216,2.245221,0.24403791,0.23054728,0.11187452,0.06486492,inf,inf,inf,inf,1,1,1,1,3,2,3,2,3,0,1,1,0,0,0
209043923,209043648,42042860,60.1877325,24.832678599999998,-0.09004139,-1.0661212,-5.6613717,0.22263904,0.116216525,-4.172325e-07,-0.28171176,-0.3334158,-1.2486461,-1.2440411,-0.025598146,0.051155806,0.014507944,0.40019402,-0.84540814,1.9111348,-2.1995628,0.060404032,-0.041085348,-0.03642802,6.345288e-05,-9.697216,2.854975,0.24429673,0.23098823,0.12114484,0.06494033,inf,inf,inf,inf,1,1,1,1,3,2,3,2,3,0,1,1,0,0,0
209543954,209543648,42042860,60.1877325,24.832678599999998,-0.29621434,-1.3547202,-6.3399477,0.22263904,0.116216525,-4.172325e-07,-0.5711293,-0.8154405,-1.3653293,-1.3784393,-0.025598146,0.051155806,0.014507944,-3.235452,0.45538637,1.4620019,-2.093827,0.036958475,0.037717618,-0.03642802,6.4420674e-05,-9.697216,3.533551,0.24451962,0.2309103,0.15345497,0.06499688,inf,inf,inf,inf,1,1,1,1,3,2,3,2,3,1,1,1,0,0,0
210043923,210043648,42042860,60.1877325,24.832678599999998,-0.6493864,-1.921096,-7.0551233,0.22263904,0.116216525,-4.172325e-07,-0.8903551,-1.4347115,-1.4174474,-1.439224,-0.025598146,0.051155806,0.014507944,2.343288,1.4958451,0.81682855,-1.9962904,0.016496576,0.1278267,-0.03642802,6.608309e-05,-9.697216,4.248727,0.24478097,0.23082252,0.15864217,0.06507286,inf,inf,inf,inf,1,1,1,1,3,2,3,2,3,1,1,1,0,0,0
210543962,210543647,42042860,60.1877325,24.832678599999998,-1.1692191,-2.7838364,-7.8023243,0.22263904,0.116216525,-4.172325e-07,-1.1843047,-1.9899167,-1.4306896,-1.4643556,-0.025598146,0.051155806,0.014507944,-2.4970553,-0.86844164,0.8206183,-1.996785,0.007947592,0.122562975,-0.03642802,6.769149e-05,-9.697216,4.995928,0.24501096,0.23070157,0.14834087,0.065164916,inf,inf,inf,inf,1,1,1,1,3,2,3,2,3,1,1,1,0,0,0
211543923,211543648,42042860,60.1877325,24.832678599999998,-2.4134395,-5.2129474,-9.393379,0.22263904,0.116216525,-4.172325e-07,-1.2219852,-2.6362062,-1.7588034,-1.7915224,-0.025598146,0.051155806,0.014507944,1.3392595,4.4435496,0.4410116,-1.9414581,0.0038622918,0.1869402,-0.03642802,7.10973e-05,-9.697216,6.5869827,0.24550845,0.23095354,0.1215466,0.06521915,inf,inf,inf,inf,1,1,1,1,3,2,3,2,3,1,1,1,0,0,0
212043963,212043648,42042860,60.1877325,24.832678599999998,-3.0055974,-6.5452394,-10.246106,0.22263904,0.116216525,-4.172325e-07,-1.1219769,-2.6114771,-1.2867954,-1.3083581,-0.025598146,0.051155806,0.014507944,1.129579,0.033018373,2.12142,-1.9728009,0.00357375,0.15358832,-0.03642802,7.251937e-05,-9.697216,7.4397097,0.24575108,0.23083545,0.11253615,0.06513907,inf,inf,inf,inf,1,1,1,1,3,2,3,2,3,1,1,1,0,0,0
212543936,212543648,42042860,60.1877325,24.832678599999998,-3.5559013,-7.818087,-10.670976,0.22263904,0.116216525,-4.172325e-07,-1.0014975,-2.452124,-0.7066434,-0.74004763,-0.025598146,0.051155806,0.014507944,1.338771,-1.0069078,-0.18925387,-1.975406,0.0035361925,0.15185334,-0.03642802,7.38331e-05,-9.697216,7.864579,0.2459335,0.23126376,0.107723944,0.065129116,inf,inf,inf,inf,1,1,1,1,3,2,3,2,3,1,1,1,0,0,0
213043927,213043647,42042860,60.1877325,24.832678599999998,-3.976759,-8.872284,-11.079462,0.22263904,0.116216525,-4.172325e-07,-0.5501641,-1.6887498,-0.7089734,-0.7769835,-0.025598146,0.051155806,0.014507944,3.0805218,4.673588,-2.8658779,-1.9697708,0.0033812865,0.15682103,-0.03642802,7.319468e-05,-9.697216,8.273066,0.24626634,0.23136953,0.11667209,0.0651169,inf,inf,inf,inf,1,1,1,1,3,2,3,2,3,1,1,1,0,0,0
213543926,213543648,42042860,60.1877325,24.832678599999998,-4.1795483,-9.521215,-11.436796,0.22263904,0.116216525,-4.172325e-07,-0.23192167,-0.95135486,-0.630872,-0.6960299,-0.025598146,0.051155806,0.014507944,1.8309457,0.64737487,0.1996128,-1.9440767,0.0025612307,0.18417265,-0.03642802,6.8697576e-05,-9.697216,8.6304,0.24684693,0.23172504,0.13358141,0.06528118,inf,inf,inf,inf,1,1,1,1,3,2,3,2,3,1,1,1,0,0,0
214043928,214043647,42042860,60.1877325,24.832678599999998,-4.248012,-9.84575,-11.75516,0.22263904,0.116216525,-4.172325e-07,-0.054569125,-0.435914,-0.64896,-0.6857653,-0.025598146,0.051155806,0.014507944,-0.501637,-1.9341973,0.7218619,-1.9207047,0.001796346,0.20556727,-0.03642802,6.5499364e-05,-9.697216,8.948764,0.24729763,0.23261927,0.13163604,0.06538446,inf,inf,inf,inf,1,1,1,1,3,2,3,2,3,1,1,1,0,0,0
214543930,214543648,42042860,60.1877325,24.832678599999998,-4.2301536,-9.91156,-12.07991,0.22263904,0.116216525,-4.172325e-07,0.048452277,-0.06496168,-0.72272396,-0.7240762,-0.025598146,0.051155806,0.014507944,-2.1237748,-2.6968665,0.6935259,-1.9107739,0.0013819333,0.21490347,-0.03642802,6.445507e-05,-9.697216,9.273514,0.24857824,0.2333942,0.12769435,0.06559917,inf,inf,inf,inf,1,1,1,1,3,2,3,2,3,1,1,1,0,0,0
215043924,215043647,42042860,60.1877325,24.832678599999998,-4.1995625,-9.896545,-12.394099,0.22263904,0.116216525,-4.172325e-07,0.09172535,-0.023685439,-0.7126334,-0.67824477,-0.025598146,0.051155806,0.014507944,0.7836114,2.678647,-0.17507903,-1.9146489,0.0011828596,0.2075445,-0.03642802,6.440868e-05,-9.697216,9.587703,0.25068936,0.23457813,0.121250324,0.065849714,inf,inf,inf,inf,1,1,1,1,3,2,3,2,3,1,1,1,0,0,0
215543964,215543648,42042860,60.1877325,24.832678599999998,-4.134403,-9.8426,-12.700894,0.22263904,0.116216525,-4.172325e-07,0.09987707,0.1832852,-0.7547395,-0.6890021,-0.025598146,0.051155806,0.014507944,-2.0148664,-2.657234,-1.0259556,-1.9318897,0.0011011625,0.19240075,-0.03642802,6.481872e-05,-9.697216,9.894498,0.25372365,0.23622712,0.11949682,0.066303305,inf,inf,inf,inf,1,1,1,1,3,2,3,2,3,1,1,1,0,0,0
216043929,216043648,42042860,60.1877325,24.832678599999998,-4.0502915,-9.730203,-12.999375,0.22263904,0.116216525,-4.172325e-07,0.07126714,0.22357973,-0.6955311,-0.6096238,-0.025598146,0.051155806,0.014507944,-0.01886504,-1.4165404,1.4477859,-1.9612975,0.0010552828,0.16435961,-0.03642802,6.528168e-05,-9.697216,10.192979,0.25690562,0.23861443,0.11891852,0.06685427,inf,inf,inf,inf,1,1,1,1,3,2,3,2,3,1,1,1,0,0,0
216543921,216543648,42042860,60.1877325,24.832678599999998,-4.0136538,-9.702039,-13.256831,0.22263904,0.116216525,-4.172325e-07,-0.05658702,-0.08787577,-0.60808074,-0.5037446,-0.025598146,0.051155806,0.014507944,1.9195205,0.50893265,-0.17014462,-1.959142,0.0010401465,0.16813639,-0.03642802,6.546003e-05,-9.697216,10.450435,0.25910613,0.24027799,0.116324596,0.067061804,inf,inf,inf,inf,1,1,1,1,3,2,3,2,3,1,1,1,0,0,0
217043951,217043648,42042860,60.1877325,24.832678599999998,-4.05942,-9.832123,-13.457006,0.22263904,0.116216525,-4.172325e-07,-0.117051736,-0.21488261,-0.6285446,-0.49509,-0.025598146,0.051155806,0.014507944,3.2125256,-0.12242001,-0.59795177,-1.9521837,0.0010394224,0.17769729,-0.03642802,6.504316e-05,-9.697216,10.65061,0.25879776,0.24109268,0.11344872,0.066774905,inf,inf,inf,inf,1,1,1,1,3,2,3,2,3,1,1,1,0,0,0
217543927,217543647,42042860,60.1877325,24.832678599999998,-4.0689797,-9.8813715,-13.66661,0.22263904,0.116216525,-4.172325e-07,0.012771556,0.05196094,-0.66115767,-0.4963275,-0.025598146,0.051155806,0.014507944,-1.2572304,-5.6274877,-1.1495801,-1.9377466,0.0010396289,0.19126347,-0.03642802,6.467236e-05,-9.697216,10.860213,0.25827444,0.2421745,0.11155962,0.066557944,inf,inf,inf,inf,1,1,1,1,3,2,3,2,3,1,1,1,0,0,0
218043922,218043647,42042860,60.1877325,24.832678599999998,-4.134293,-9.928178,-13.879748,0.22263904,0.116216525,-4.172325e-07,-0.2466348,-0.517648,-0.6799902,-0.49830118,-0.025598146,0.051155806,0.014507944,-1.1122172,-1.625557,-2.7677803,-1.9209594,0.001041526,0.21349597,-0.03642802,6.445297e-05,-9.697216,11.073352,0.25787786,0.2423502,0.11072722,0.06635777,inf,inf,inf,inf,1,1,1,1,3,2,3,2,3,1,1,1,0,0,0
218543938,218543647,42042860,60.1877325,24.832678599999998,-4.3796673,-10.498351,-14.096229,0.22263904,0.116216525,-4.172325e-07,-0.6020008,-1.5222952,-0.5999464,-0.43362567,-0.025598146,0.051155806,0.014507944,-3.1696453,-2.462734,0.15146475,-1.9377009,0.0009922024,0.18705158,-0.03642802,6.3855914e-05,-9.697216,11.289832,0.25752184,0.24233803,0.1167138,0.06628916,inf,inf,inf,inf,1,1,1,1,3,2,3,2,3,1,1,1,0,0,0
219043938,219043648,42042860,60.1877325,24.832678599999998,-4.645073,-11.249876,-14.366636,0.22263904,0.116216525,-4.172325e-07,-0.50338423,-1.3388016,-0.74012536,-0.5772423,-0.025598146,0.051155806,0.014507944,-0.40742522,0.91335076,2.2826438,-1.9574041,0.00090421597,0.16367795,-0.03642802,6.336419e-05,-9.697216,11.56024,0.2573364,0.24285363,0.1153069,0.06628197,inf,inf,inf,inf,1,1,1,1,3,2,3,2,3,1,1,1,0,0,0
219543933,219543648,42042860,60.1877325,24.832678599999998,-4.9074945,-11.89465,-14.569187,0.22263904,0.116216525,-4.172325e-07,-0.47315526,-1.1903003,-0.47101828,-0.31352508,-0.025598146,0.051155806,0.014507944,0.21804124,2.9841096,0.230035,-1.9575546,0.00087931973,0.16441993,-0.03642802,6.319479e-05,-9.697216,11.762791,0.2573117,0.24272366,0.1109041,0.06622429,inf,inf,inf,inf,1,1,1,1,3,2,3,2,3,1,1,1,0,0,0
220043928,220043648,42042860,60.1877325,24.832678599999998,-5.1700993,-12.508945,-14.732739,0.22263904,0.116216525,-4.172325e-07,-0.46348035,-1.2488215,-0.36785415,-0.22860217,-0.025598146,0.051155806,0.014507944,0.031606767,-1.518121,-1.5022377,-1.9495791,0.0008736225,0.1702842,-0.03642802,6.325643e-05,-9.697216,11.926343,0.2574186,0.24257857,0.11009481,0.06626258,inf,inf,inf,inf,1,1,1,1,3,2,3,2,3,1,1,1,0,0,0
221044106,221043648,42042860,60.1877325,24.832678599999998,-5.628584,-13.590953,-14.988042,0.22263904,0.116216525,-4.172325e-07,-0.27175406,-0.74209255,-0.43634197,-0.30710274,-0.025598146,0.051155806,0.014507944,2.1804333,5.2678337,-1.3901362,-1.953164,0.0008774367,0.1691539,-0.03642802,6.327311e-05,-9.697216,12.181645,0.2576919,0.24279706,0.10962304,0.06634184,inf,inf,inf,inf,1,1,1,1,3,2,3,2,3,1,1,1,0,0,0
221544385,221543648,42042860,60.1877325,24.832678599999998,-5.7346034,-13.851446,-15.105706,0.22263904,0.116216525,-4.172325e-07,-0.07518995,-0.38720885,-0.37096128,-0.2360524,-0.025598146,0.051155806,0.014507944,-0.6815596,-1.658131,-2.779765,-1.9144123,0.00087704643,0.2074887,-0.03642802,6.301778e-05,-9.697216,12.29931,0.25761658,0.2424986,0.11002974,0.06621447,inf,inf,inf,inf,1,1,1,1,3,2,3,2,3,1,1,1,0,0,0
222044396,222043648,42042860,60.1877325,24.832678599999998,-5.756522,-13.905362,-15.231653,0.22263904,0.116216525,-4.172325e-07,0.029204106,-0.10881387,-0.47224,-0.3259411,-0.025598146,0.051155806,0.014507944,1.83182,2.316463,-1.5152173,-1.8944486,0.0008662307,0.22711237,-0.03642802,6.275587e-05,-9.697216,12.425257,0.25743097,0.24206178,0.110982224,0.066129215,inf,inf,inf,inf,1,1,1,1,3,2,3,2,3,1,1,1,0,0,0
223044099,223043647,42042860,60.1877325,24.832678599999998,-5.7849164,-13.983131,-15.477788,0.22263904,0.116216525,-4.172325e-07,-0.13962652,-0.13933869,-0.4454177,-0.27083603,-0.025598146,0.051155806,0.014507944,-0.74274445,2.4605787,2.2771614,-1.947393,0.0008584753,0.17179935,-0.03642802,6.242222e-05,-9.697216,12.6713915,0.2570629,0.24158259,0.10944467,0.06583981,inf,inf,inf,inf,1,1,1,1,3,2,3,2,3,1,1,1,0,0,0
223544367,223543648,42042860,60.1877325,24.832678599999998,-5.8813343,-14.018699,-15.610722,0.22263904,0.116216525,-4.172325e-07,-0.19911273,-0.09576432,-0.4427975,-0.2659617,-0.025598146,0.051155806,0.014507944,-1.0564125,-1.1258225,0.9184001,-1.922036,0.0008628709,0.1983476,-0.03642802,6.230463e-05,-9.697216,12.804325,0.25685403,0.24099095,0.10936604,0.06567339,inf,inf,inf,inf,1,1,1,1,3,2,3,2,3,1,1,1,0,0,0
224044093,224043648,42042860,60.1877325,24.832678599999998,-5.9482913,-14.041958,-15.720598,0.22263904,0.116216525,-4.172325e-07,-0.003151327,-0.030134685,-0.433434,-0.25195462,-0.025598146,0.051155806,0.014507944,3.033876,0.35454902,-2.8625348,-1.9068217,0.00086833,0.21364462,-0.03642802,6.2235486e-05,-9.697216,12.914202,0.25665426,0.2409502,0.10912768,0.065597735,inf,inf,inf,inf,1,1,1,1,3,2,3,2,3,1,1,1,0,0,0
224544096,224543648,42042860,60.1877325,24.832678599999998,-5.927478,-14.032089,-15.862563,0.22263904,0.116216525,-4.172325e-07,0.10223909,0.044229496,-0.47301093,-0.3005106,-0.025598146,0.051155806,0.014507944,1.0305904,-0.90306944,-1.3935777,-1.9572941,0.00087391434,0.16304839,-0.03642802,6.214193e-05,-9.697216,13.056167,0.25642574,0.2403423,0.10925928,0.06550452,inf,inf,inf,inf,1,1,1,1,3,2,3,2,3,1,1,1,0,0,0
225044096,225043648,42042860,60.1877325,24.832678599999998,-5.894739,-13.999283,-16.012894,0.22263904,0.116216525,-4.172325e-07,0.059210684,0.10656325,-0.46317038,-0.29412118,-0.025598146,0.051155806,0.014507944,0.25574407,-0.16159503,1.5109813,-1.9911844,0.00087963755,0.12955594,-0.03642802,6.21559e-05,-9.697216,13.206497,0.2566401,0.2399763,0.10974411,0.06554911,inf,inf,inf,inf,1,1,1,1,3,2,3,2,3,1,1,1,0,0,0
226044104,226043648,42042860,60.1877325,24.832678599999998,-5.8537154,-13.959806,-16.281534,0.22263904,0.116216525,-4.172325e-07,-0.08254348,0.10886822,-0.3486418,-0.19103509,-0.025598146,0.051155806,0.014507944,-3.046373,-0.34987134,0.5696198,-1.952797,0.00089272036,0.16735786,-0.03642802,6.197256e-05,-9.697216,13.475138,0.2563964,0.23962931,0.1092951,0.065446705,inf,inf,inf,inf,1,1,1,1,3,2,3,2,3,1,1,1,0,0,0
226544098,226543648,42042860,60.1877325,24.832678599999998,-5.908236,-13.90733,-16.417704,0.22263904,0.116216525,-4.172325e-07,-0.09192421,0.14632656,-0.35428274,-0.20819964,-0.025598146,0.051155806,0.014507944,-1.5420083,-0.8149685,1.4009839,-1.9338592,0.00089859514,0.18603453,-0.03642802,6.193402e-05,-9.697216,13.611307,0.25634223,0.2392329,0.10935916,0.06542157,inf,inf,inf,inf,1,1,1,1,3,2,3,2,3,1,1,1,0,0,0
227044122,227043648,42042860,60.1877325,24.832678599999998,-5.9617095,-13.868431,-16.5247,0.22263904,0.116216525,-4.172325e-07,-0.056425557,0.061447006,-0.24081515,-0.10201699,-0.025598146,0.051155806,0.014507944,3.1252065,0.7442069,2.3583827,-1.9581947,0.00090465095,0.16278414,-0.03642802,6.1919556e-05,-9.697216,13.718304,0.25635722,0.23888431,0.10908584,0.065415986,inf,inf,inf,inf,1,1,1,1,3,2,3,2,3,1,1,1,0,0,0
227544112,227543648,42042860,60.1877325,24.832678599999998,-5.9849973,-13.85039,-16.633858,0.22263904,0.116216525,-4.172325e-07,-0.020207157,0.03174926,-0.3309073,-0.20431615,-0.025598146,0.051155806,0.014507944,0.79426414,-3.3113766,0.21710452,-1.9927988,0.0009103629,0.1274916,-0.03642802,6.192981e-05,-9.697216,13.827461,0.2563237,0.23906113,0.10923043,0.06546149,inf,inf,inf,inf,1,1,1,1,3,2,3,2,3,1,1,1,0,0,0
228044093,228043648,42042860,60.1877325,24.832678599999998,-6.0260367,-13.873255,-16.770845,0.22263904,0.116216525,-4.172325e-07,-0.0354935,-0.059640378,-0.3106716,-0.18949027,-0.025598146,0.051155806,0.014507944,-2.8034062,-1.8016686,-0.3018515,-1.9729013,0.00091599976,0.14844948,-0.03642802,6.182772e-05,-9.697216,13.964449,0.25626314,0.23864157,0.10949117,0.06548632,inf,inf,inf,inf,1,1,1,1,3,2,3,2,3,1,1,1,0,0,0
228544116,228543648,42042860,60.1877325,24.832678599999998,-5.992829,-13.953333,-16.890371,0.22263904,0.116216525,-4.172325e-07,0.24624705,-0.17064337,-0.2986598,-0.17608552,-0.025598146,0.051155806,0.014507944,-2.168932,0.57354987,0.8158101,-1.8958204,0.00092021644,0.22294265,-0.03642802,6.172751e-05,-9.697216,14.083975,0.2561212,0.23816605,0.10958125,0.06546246,inf,inf,inf,inf,1,1,1,1,3,2,3,2,3,1,1,1,0,0,0
229044385,229043648,42042860,60.1877325,24.832678599999998,-5.89974,-14.045416,-16.999008,0.22263904,0.116216525,-4.172325e-07,0.13993083,-0.11626306,-0.27515554,-0.14939626,-0.025598146,0.051155806,0.014507944,1.2253668,0.85437644,0.15499797,-1.9353082,0.00092301273,0.18277535,-0.03642802,6.1627026e-05,-9.697216,14.192612,0.255922,0.23819864,0.109270886,0.065461725,inf,inf,inf,inf,1,1,1,1,3,2,3,2,3,1,1,1,0,0,0
229544097,229543648,42042860,60.1877325,24.832678599999998,-5.8899245,-14.111938,-17.104038,0.22263904,0.116216525,-4.172325e-07,0.07537848,-0.070249006,-0.28333,-0.16178684,-0.025598146,0.051155806,0.014507944,-0.7928285,-2.3127854,0.37944093,-1.9172332,0.0009303075,0.20188393,-0.03642802,6.1596635e-05,-9.697216,14.297642,0.25567687,0.23765376,0.108901076,0.06543639,inf,inf,inf,inf,1,1,1,1,3,2,3,2,3,1,1,1,0,0,0
230044093,230043647,42042860,60.1877325,24.832678599999998,-5.877704,-14.165152,-17.219944,0.22263904,0.116216525,-4.172325e-07,0.06457688,-0.03900898,-0.27553815,-0.15776813,-0.025598146,0.051155806,0.014507944,-1.3049965,1.5493594,1.2916093,-1.9317136,0.0009386653,0.18733366,-0.03642802,6.155831e-05,-9.697216,14.4135475,0.25545755,0.23711239,0.10895228,0.06539946,inf,inf,inf,inf,1,1,1,1,3,2,3,2,3,1,1,1,0,0,0
230544390,230543648,42042860,60.1877325,24.832678599999998,-5.8696365,-14.189,-17.328106,0.22263904,0.116216525,-4.172325e-07,0.067619875,-0.033596028,-0.38284588,-0.274434,-0.025598146,0.051155806,0.014507944,0.3859477,-1.7513252,0.47253576,-1.9495776,0.000947508,0.16963689,-0.03642802,6.155223e-05,-9.697216,14.521709,0.2552143,0.2371005,0.10877548,0.065419264,inf,inf,inf,inf,1,1,1,1,3,2,3,2,3,1,1,1,0,0,0
231044110,231043647,42042860,60.1877325,24.832678599999998,-5.8542147,-14.179035,-17.500372,0.22263904,0.116216525,-4.172325e-07,0.079513475,0.04592795,-0.41083425,-0.30790967,-0.025598146,0.051155806,0.014507944,0.40464303,0.9658004,-3.216553,-1.9460641,0.0009567117,0.17315571,-0.03642802,6.1429484e-05,-9.697216,14.693975,0.25491685,0.23653817,0.10916692,0.06536885,inf,inf,inf,inf,1,1,1,1,3,2,3,2,3,1,1,1,0,0,0
231543930,231543647,42042860,60.1877325,24.832678599999998,-5.8231277,-14.161267,-17.648859,0.22263904,0.116216525,-4.172325e-07,0.08462192,-0.019830177,-0.40394294,-0.29948977,-0.025598146,0.051155806,0.014507944,0.69452,-1.2110728,0.94033206,-1.955931,0.0009659082,0.16247337,-0.03642802,6.1378494e-05,-9.697216,14.842463,0.25465885,0.23599117,0.108837076,0.06530467,inf,inf,inf,inf,1,1,1,1,3,2,3,2,3,1,1,1,0,0,0
232044140,232043648,42042860,60.1877325,24.832678599999998,-5.790238,-14.180254,-17.800224,0.22263904,0.116216525,-4.172325e-07,0.09156001,-0.07399633,-0.3857051,-0.28387094,-0.025598146,0.051155806,0.014507944,1.1481177,0.41714403,0.68623257,-1.95059,0.0009752596,0.16787155,-0.03642802,6.132462e-05,-9.697216,14.993828,0.2543677,0.2354368,0.10881528,0.065234676,inf,inf,inf,inf,1,1,1,1,3,2,3,2,3,1,1,1,0,0,0
232543928,232543647,42042860,60.1877325,24.832678599999998,-5.762529,-14.16873,-17.949205,0.22263904,0.116216525,-4.172325e-07,0.08025007,0.022864835,-0.3607696,-0.26270366,-0.025598146,0.051155806,0.014507944,-0.46254167,1.306652,-0.50552994,-1.9222591,0.0009848701,0.19629149,-0.03642802,6.1305414e-05,-9.697216,15.142809,0.25408384,0.23540883,0.108744286,0.06521906,inf,inf,inf,inf,1,1,1,1,3,2,3,2,3,1,1,1,0,0,0
233043927,233043647,42042860,60.1877325,24.832678599999998,-5.767215,-14.150222,-18.074379,0.22263904,0.116216525,-4.172325e-07,-0.09468362,0.044475716,-0.29375368,-0.20022455,-0.025598146,0.051155806,0.014507944,0.1442411,-0.19489305,1.063014,-1.9473592,0.0009947038,0.16996907,-0.03642802,6.133996e-05,-9.697216,15.2679825,0.25381616,0.23485982,0.10866753,0.065171905,inf,inf,inf,inf,1,1,1,1,3,2,3,2,3,1,1,1,0,0,0
233543955,233543647,42042860,60.1877325,24.832678599999998,-5.851221,-14.103817,-18.185938,0.22263904,0.116216525,-4.172325e-07,-0.1630163,0.11642301,-0.24854086,-0.15451147,-0.025598146,0.051155806,0.014507944,0.3575429,-0.15417404,1.3079114,-1.9897964,0.0010029977,0.12903005,-0.03642802,6.143395e-05,-9.697216,15.379541,0.25353965,0.23431589,0.108826816,0.065151244,inf,inf,inf,inf,1,1,1,1,3,2,3,2,3,1,1,1,0,0,0
235043924,235043648,42042860,60.1877325,24.832678599999998,-5.924469,-14.004139,-18.521585,0.22263904,0.116216525,-4.172325e-07,0.21962674,-0.0094938055,-0.29964197,-0.1940352,-0.025598146,0.051155806,0.014507944,1.284107,2.7757604,-2.3642602,-1.9172996,0.001029933,0.20258486,-0.03642802,6.140568e-05,-9.697216,15.715189,0.25278363,0.23329784,0.10864879,0.065113276,inf,inf,inf,inf,1,1,1,1,3,2,3,2,3,1,1,1,0,0,0
235543924,235543647,42042860,60.1877325,24.832678599999998,-5.8368063,-14.002586,-18.605457,0.22263904,0.116216525,-4.172325e-07,0.13896964,-0.070177995,-0.29825485,-0.20085077,-0.025598146,0.051155806,0.014507944,-0.69366497,-3.9087949,-0.12517998,-1.933941,0.0010375566,0.18461107,-0.03642802,6.143987e-05,-9.697216,15.799061,0.2525379,0.23331435,0.10865563,0.065105006,inf,inf,inf,inf,1,1,1,1,3,2,3,2,3,1,1,1,0,0,0
236043930,236043648,42042860,60.1877325,24.832678599999998,-5.814689,-14.070686,-18.727907,0.22263904,0.116216525,-4.172325e-07,0.10582818,-0.18325108,-0.33372018,-0.24639161,-0.025598146,0.051155806,0.014507944,-0.56848085,-0.14126378,-1.7675164,-1.8874782,0.0010468457,0.2325333,-0.03642802,6.141777e-05,-9.697216,15.921511,0.25232735,0.23283625,0.10870875,0.065071575,inf,inf,inf,inf,1,1,1,1,3,2,3,2,3,1,1,1,0,0,0
236544110,236543647,42042860,60.1877325,24.832678599999998,-5.7751603,-14.142822,-18.840837,0.22263904,0.116216525,-4.172325e-07,0.043328155,-0.108602926,-0.3118264,-0.23011348,-0.025598146,0.051155806,0.014507944,0.19099592,0.9043246,-3.4503067,-1.9346906,0.0010561297,0.18371351,-0.03642802,6.138415e-05,-9.697216,16.034441,0.25207794,0.23233764,0.10848357,0.064999215,inf,inf,inf,inf,1,1,1,1,3,2,3,2,3,1,1,1,0,0,0
237043954,237043648,42042860,60.1877325,24.832678599999998,-5.776953,-14.164984,-18.97582,0.22263904,0.116216525,-4.172325e-07,0.051188413,-0.0462592,-0.33128795,-0.2589173,-0.025598146,0.051155806,0.014507944,-2.1110394,0.30877432,0.538726,-1.9445828,0.0010669534,0.1747008,-0.03642802,6.137909e-05,-9.697216,16.169424,0.25184795,0.23183475,0.10857422,0.06496145,inf,inf,inf,inf,1,1,1,1,3,2,3,2,3,1,1,1,0,0,0
237543926,237543648,42042860,60.1877325,24.832678599999998,-5.7600117,-14.201172,-19.122267,0.22263904,0.116216525,-4.172325e-07,0.013019041,-0.083597116,-0.35657558,-0.28449905,-0.025598146,0.051155806,0.014507944,-0.7290751,-1.2935117,1.8516657,-1.9245193,0.0010780748,0.1934763,-0.03642802,6.1331324e-05,-9.697216,16.31587,0.25156972,0.2318159,0.10880975,0.064946935,inf,inf,inf,inf,1,1,1,1,3,2,3,2,3,1,1,1,0,0,0
238043925,238043647,42042860,60.1877325,24.832678599999998,-5.752529,-14.236505,-19.260525,0.22263904,0.116216525,-4.172325e-07,0.002149746,-0.07305305,-0.37078774,-0.2874147,-0.025598146,0.051155806,0.014507944,0.42557037,-3.7186658,-0.37536612,-1.8941016,0.0010894514,0.22384001,-0.03642802,6.12942e-05,-9.697216,16.454128,0.25132063,0.23128794,0.10873426,0.0648921,inf,inf,inf,inf,1,1,1,1,3,2,3,2,3,1,1,1,0,0,0
238543985,238543648,42042860,60.1877325,24.832678599999998,-5.7724705,-14.243444,-19.396994,0.22263904,0.116216525,-4.172325e-07,-0.10261586,0.06126135,-0.4101379,-0.3152355,-0.025598146,0.051155806,0.014507944,-0.34743506,0.6353117,-0.19510183,-1.9034175,0.0011008618,0.21445075,-0.03642802,6.124377e-05,-9.697216,16.590597,0.25101796,0.23073621,0.108714655,0.06483816,inf,inf,inf,inf,1,1,1,1,3,2,3,2,3,1,1,1,0,0,0
239043927,239043647,42042860,60.1877325,24.832678599999998,-5.8139973,-14.189512,-19.506882,0.22263904,0.116216525,-4.172325e-07,-0.08420205,0.20698051,-0.29520527,-0.1987467,-0.025598146,0.051155806,0.014507944,-0.0073054996,1.9071476,-0.67061716,-1.9182248,0.0011105068,0.19953492,-0.03642802,6.125886e-05,-9.697216,16.700485,0.2507319,0.23069242,0.108491726,0.06486466,inf,inf,inf,inf,1,1,1,1,3,2,3,2,3,1,1,1,0,0,0
239543930,239543648,42042860,60.1877325,24.832678599999998,-5.768133,-14.122012,-19.467104,0.22263904,0.116216525,-4.172325e-07,0.45807138,0.1368408,0.4692739,0.56131446,-0.025598146,0.051155806,0.014507944,3.436339,2.4489224,0.25630426,-1.9318393,0.0011190875,0.18145874,-0.03642802,6.140537e-05,-9.697216,16.660707,0.25043836,0.23015413,0.10747415,0.064823635,inf,inf,inf,inf,1,1,1,1,3,2,3,2,3,1,1,1,0,0,0
240044110,240043647,42042860,60.1877325,24.832678599999998,-5.237852,-14.112771,-19.20679,0.22263904,0.116216525,-4.172325e-07,1.4904613,0.02443655,0.37281767,0.43981546,-0.025598146,0.051155806,0.014507944,2.7215729,1.3351027,-0.87652534,-1.9723905,0.0010928689,0.14997754,-0.03642802,6.1934545e-05,-9.697216,16.400394,0.2500585,0.22961488,0.11192322,0.064910054,inf,inf,inf,inf,1,1,1,1,3,2,3,2,3,1,1,1,0,0,0
240543926,240543648,42042860,60.1877325,24.832678599999998,-4.422919,-14.148044,-19.03638,0.22263904,0.116216525,-4.172325e-07,1.6893907,-0.045647413,0.19402425,0.26197228,-0.025598146,0.051155806,0.014507944,1.9376043,1.7685661,-0.42523983,-1.9821234,0.0010198372,0.14231972,-0.03642802,6.2278166e-05,-9.697216,16.229984,0.24975881,0.22959413,0.113319494,0.065011516,inf,inf,inf,inf,1,1,1,1,3,2,3,2,3,1,1,1,0,0,0
241043934,241043648,42042860,60.1877325,24.832678599999998,-3.6246042,-14.196105,-18.913513,0.22263904,0.116216525,-4.172325e-07,1.4073519,-0.04319052,0.022468891,0.11666387,-0.025598146,0.051155806,0.014507944,-0.32032683,-0.00889496,0.220962,-1.9747931,0.0009882405,0.1476898,-0.03642802,6.239434e-05,-9.697216,16.107117,0.24946098,0.2290943,0.110181555,0.06495335,inf,inf,inf,inf,1,1,1,1,3,2,3,2,3,1,1,1,0,0,0
241543925,241543648,42042860,60.1877325,24.832678599999998,-3.0410867,-14.221258,-18.844181,0.22263904,0.116216525,-4.172325e-07,0.8833507,-0.013667104,-0.07876312,0.041991524,-0.025598146,0.051155806,0.014507944,-3.3781762,-2.8539772,-0.95213,-1.9616487,0.0009924273,0.15960632,-0.03642802,6.216214e-05,-9.697216,16.037785,0.2491754,0.22860019,0.109133,0.064891785,inf,inf,inf,inf,1,1,1,1,3,2,3,2,3,1,1,1,0,0,0
242043956,242043647,42042860,60.1877325,24.832678599999998,-2.7138047,-14.23016,-18.82018,0.22263904,0.116216525,-4.172325e-07,0.40337747,0.010123548,-0.12062983,0.011953088,-0.025598146,0.051155806,0.014507944,-3.7668042,0.7062503,1.2775956,-1.9427322,0.0009915627,0.17792684,-0.03642802,6.165882e-05,-9.697216,16.013784,0.24885674,0.22810294,0.11058111,0.064862244,inf,inf,inf,inf,1,1,1,1,3,2,3,2,3,1,1,1,0,0,0
242543928,242543648,42042860,60.1877325,24.832678599999998,-2.6126738,-14.219845,-18.802908,0.22263904,0.116216525,-4.172325e-07,0.03169519,-0.009746866,-0.11108885,0.018692294,-0.025598146,0.051155806,0.014507944,0.78215724,-1.8197705,-1.7649627,-1.926921,0.00096986094,0.19691049,-0.03642802,6.1205195e-05,-9.697216,15.996511,0.24848013,0.22805914,0.11173279,0.064871445,inf,inf,inf,inf,1,1,1,1,3,2,3,2,3,1,1,1,0,0,0
243043925,243043647,42042860,60.1877325,24.832678599999998,-2.6642451,-14.219466,-18.803442,0.22263904,0.116216525,-4.172325e-07,-0.187564,-0.029539471,-0.12849313,-0.010351048,-0.025598146,0.051155806,0.014507944,-0.21012752,-0.5965597,2.0716436,-1.9518925,0.0009420203,0.1740919,-0.03642802,6.1006824e-05,-9.697216,15.9970455,0.24816461,0.22754872,0.11160817,0.06483578,inf,inf,inf,inf,1,1,1,1,3,2,3,2,3,1,1,1,0,0,0
243543958,243543648,42042860,60.1877325,24.832678599999998,-3.0121772,-14.210773,-18.8552,0.22263904,0.116216525,-4.172325e-07,-1.2907028,-0.018748304,-0.19039717,-0.08317579,-0.025598146,0.051155806,0.014507944,-1.602317,-0.018710906,0.83062184,-1.9441823,0.0009108972,0.1622226,-0.03642802,6.0956983e-05,-9.697216,16.048803,0.24782729,0.22701804,0.113938965,0.06485932,inf,inf,inf,inf,1,1,1,1,3,2,3,2,3,1,1,1,0,0,0
244043925,244043647,42042860,60.1877325,24.832678599999998,-3.8630939,-14.212661,-18.885008,0.22263904,0.116216525,-4.172325e-07,-1.8536748,0.0019047725,-0.17483135,-0.070953734,-0.025598146,0.051155806,0.014507944,0.53960514,0.20516513,1.6376553,-1.9344202,0.0008251659,0.1913462,-0.03642802,6.138572e-05,-9.697216,16.078611,0.24757439,0.226977,0.117257185,0.065012075,inf,inf,inf,inf,1,1,1,1,3,2,3,2,3,1,1,1,0,0,0
244543921,244543647,42042860,60.1877325,24.832678599999998,-4.779779,-14.20643,-18.917255,0.22263904,0.116216525,-4.172325e-07,-1.6429667,0.021337457,-0.083747804,0.009178637,-0.025598146,0.051155806,0.014507944,-1.5181397,-3.7554195,1.2338654,-1.9385084,0.0007763964,0.1900218,-0.03642802,6.201827e-05,-9.697216,16.110859,0.24732096,0.2264524,0.1116595,0.06483566,inf,inf,inf,inf,1,1,1,1,3,2,3,2,3,1,1,1,0,0,0
245043932,245043648,42042860,60.1877325,24.832678599999998,-5.4836526,-14.169677,-18.928679,0.22263904,0.116216525,-4.172325e-07,-1.0622718,0.07974242,-0.07357051,0.0059401677,-0.025598146,0.051155806,0.014507944,0.5844389,2.1567638,1.8216087,-1.9304901,0.0007775014,0.19920419,-0.03642802,6.239824e-05,-9.697216,16.122282,0.24708632,0.22593641,0.10829262,0.06464891,inf,inf,inf,inf,1,1,1,1,3,2,3,2,3,1,1,1,0,0,0
245543925,245543648,42042860,60.1877325,24.832678599999998,-5.873042,-14.145041,-18.921854,0.22263904,0.116216525,-4.172325e-07,-0.46989352,-0.0020432188,-0.044399206,0.03341411,-0.025598146,0.051155806,0.014507944,0.6224127,0.49063075,1.5748916,-1.9446653,0.00078264275,0.1848655,-0.03642802,6.221255e-05,-9.697216,16.115458,0.24676308,0.22586668,0.10947515,0.064615466,inf,inf,inf,inf,1,1,1,1,3,2,3,2,3,1,1,1,0,0,0
246043935,246043648,42042860,60.1877325,24.832678599999998,-5.991041,-14.15013,-18.903324,0.22263904,0.116216525,-4.172325e-07,-0.043055262,-0.063550666,-0.049448386,0.027048854,-0.025598146,0.051155806,0.014507944,1.2615921,-1.4059536,-0.42723212,-1.9589372,0.0007666448,0.16913694,-0.03642802,6.1727784e-05,-9.697216,16.096928,0.2464672,0.22535451,0.1116461,0.0646054,inf,inf,inf,inf,1,1,1,1,3,2,3,2,3,1,1,1,0,0,0
246543927,246543647,42042860,60.1877325,24.832678599999998,-5.9313326,-14.182379,-18.899837,0.22263904,0.116216525,-4.172325e-07,0.29535544,-0.093712196,-0.042641934,0.029946048,-0.025598146,0.051155806,0.014507944,1.0697417,-2.8429706,0.91843486,-1.957407,0.00073853915,0.16948153,-0.03642802,6.123142e-05,-9.697216,16.093441,0.24618085,0.22485434,0.11216894,0.06459048,inf,inf,inf,inf,1,1,1,1,3,2,3,2,3,1,1,1,0,0,0
247044151,247043647,42042860,60.1877325,24.832678599999998,-5.4787903,-14.250199,-18.916721,0.22263904,0.116216525,-4.172325e-07,1.4684397,-0.12431499,-0.11438704,-0.041546017,-0.025598146,0.051155806,0.014507944,0.24306364,-0.41326532,1.3713516,-1.9724686,0.0006966657,0.15570223,-0.03642802,6.0761842e-05,-9.697216,16.110325,0.24591157,0.22436443,0.11629605,0.06467141,inf,inf,inf,inf,1,1,1,1,3,2,3,2,3,1,1,1,0,0,0
248043931,248043647,42042860,60.1877325,24.832678599999998,-3.9738054,-14.348489,-19.174519,0.22263904,0.116216525,-4.172325e-07,0.94706976,0.006647907,-0.5256001,-0.44623217,-0.025598146,0.051155806,0.014507944,-0.6292406,2.2634044,-1.3263183,-1.973907,0.00060325087,0.15688223,-0.03642802,6.0293285e-05,-9.697216,16.368122,0.24557318,0.22394703,0.11051075,0.06459791,inf,inf,inf,inf,1,1,1,1,3,2,3,2,3,1,1,1,0,0,0
248543967,248543648,42042860,60.1877325,24.832678599999998,-3.6769328,-14.340122,-19.413095,0.22263904,0.116216525,-4.172325e-07,0.13970184,0.06184543,-0.57991815,-0.5005286,-0.025598146,0.051155806,0.014507944,-2.1880133,-0.12847269,0.73347306,-1.9686643,0.0006079603,0.1619844,-0.03642802,5.9970946e-05,-9.697216,16.606699,0.24537489,0.22352216,0.10922747,0.06451207,inf,inf,inf,inf,1,1,1,1,3,2,3,2,3,1,1,1,0,0,0
249044114,249043648,42042860,60.1877325,24.832678599999998,-3.746936,-14.315099,-19.676727,0.22263904,0.116216525,-4.172325e-07,-0.47099963,0.08457335,-0.64482105,-0.56721336,-0.025598146,0.051155806,0.014507944,-0.518601,1.8404349,0.35493714,-1.9299875,0.0006060798,0.20178497,-0.03642802,5.963585e-05,-9.697216,16.87033,0.24512629,0.22354425,0.11062465,0.064567134,inf,inf,inf,inf,1,1,1,1,3,2,3,2,3,1,1,1,0,0,0
249543936,249543648,42042860,60.1877325,24.832678599999998,-4.0990624,-14.296596,-19.964876,0.22263904,0.116216525,-4.172325e-07,-0.90112025,0.08455471,-0.63028884,-0.5599684,-0.025598146,0.051155806,0.014507944,-1.7972509,-2.1287692,-0.44576022,-1.9254577,0.00059380237,0.20646277,-0.03642802,5.9477476e-05,-9.697216,17.15848,0.24491234,0.22313468,0.11141144,0.064588934,inf,inf,inf,inf,1,1,1,1,3,2,3,2,3,1,1,1,0,0,0
250043931,250043648,42042860,60.1877325,24.832678599999998,-4.6176906,-14.26281,-20.246176,0.22263904,0.116216525,-4.172325e-07,-1.1069367,0.1740136,-0.61317784,-0.55057406,-0.025598146,0.051155806,0.014507944,-0.939159,2.9264908,-0.46782586,-1.9308017,0.00058140355,0.20095478,-0.03642802,5.9568498e-05,-9.697216,17.43978,0.24473175,0.22273242,0.11062574,0.06455852,inf,inf,inf,inf,1,1,1,1,3,2,3,2,3,1,1,1,0,0,0
250544110,250543648,42042860,60.1877325,24.832678599999998,-5.1774483,-14.180727,-20.49417,0.22263904,0.116216525,-4.172325e-07,-0.9800561,0.2028625,-0.40192208,-0.35177326,-0.025598146,0.051155806,0.014507944,1.1924525,-0.5162306,1.3520321,-1.9198952,0.00057732605,0.21217299,-0.03642802,5.9827886e-05,-9.697216,17.687773,0.24453665,0.22276625,0.108784035,0.06451399,inf,inf,inf,inf,1,1,1,1,3,2,3,2,3,1,1,1,0,0,0
251043927,251043647,42042860,60.1877325,24.832678599999998,-5.6196113,-14.117723,-20.639023,0.22263904,0.116216525,-4.172325e-07,-0.6296088,0.14396398,-0.18317628,-0.15387101,-0.025598146,0.051155806,0.014507944,-0.0411571,1.08003,-1.539902,-1.9237165,0.00058304763,0.2079487,-0.03642802,6.0266444e-05,-9.697216,17.832626,0.24438879,0.22237524,0.107275106,0.06443555,inf,inf,inf,inf,1,1,1,1,3,2,3,2,3,1,1,1,0,0,0
251544117,251543648,42042860,60.1877325,24.832678599999998,-5.8495145,-14.069154,-20.69722,0.22263904,0.116216525,-4.172325e-07,-0.24083288,0.08914158,-0.01304159,-0.0023692218,-0.025598146,0.051155806,0.014507944,-0.2610384,-0.48650742,-0.1610929,-1.9304222,0.000590501,0.20075284,-0.03642802,6.067448e-05,-9.697216,17.890823,0.24418369,0.22199526,0.10734484,0.06437835,inf,inf,inf,inf,1,1,1,1,3,2,3,2,3,1,1,1,0,0,0
252043926,252043647,42042860,60.1877325,24.832678599999998,-5.907492,-14.05083,-20.700445,0.22263904,0.116216525,-4.172325e-07,0.0075042457,0.03701173,0.004271617,0.009543878,-0.025598146,0.051155806,0.014507944,1.694288,2.7320898,-1.9626884,-1.9388645,0.0005935267,0.19215713,-0.03642802,6.1003262e-05,-9.697216,17.894049,0.24400678,0.22208555,0.10802362,0.064404465,inf,inf,inf,inf,1,1,1,1,3,2,3,2,3,1,1,1,0,0,0
252544111,252543648,42042860,60.1877325,24.832678599999998,-5.8828635,-14.05251,-20.686647,0.22263904,0.116216525,-4.172325e-07,0.04742136,0.0067031626,0.044429313,0.055677824,-0.025598146,0.051155806,0.014507944,-0.63157165,-0.5777642,1.5195785,-1.9634303,0.00059449894,0.16700031,-0.03642802,6.122948e-05,-9.697216,17.88025,0.2438582,0.22176245,0.10830768,0.06439066,inf,inf,inf,inf,1,1,1,1,3,2,3,2,3,1,1,1,0,0,0
253043930,253043648,42042860,60.1877325,24.832678599999998,-5.8179274,-14.071262,-20.64732,0.22263904,0.116216525,-4.172325e-07,0.12429488,-0.044151783,0.061742347,0.088345714,-0.025598146,0.051155806,0.014507944,-0.48661232,-1.4546435,1.7429402,-1.963471,0.0005972418,0.16701496,-0.03642802,6.142442e-05,-9.697216,17.840923,0.24384513,0.22150677,0.108341545,0.06439459,inf,inf,inf,inf,1,1,1,1,3,2,3,2,3,1,1,1,0,0,0
253543954,253543648,42042860,60.1877325,24.832678599999998,-5.6251626,-14.120577,-20.364721,0.22263904,0.116216525,-4.172325e-07,0.5190192,-0.12520052,0.7130964,0.7500714,-0.025598146,0.051155806,0.014507944,-0.03503341,-1.2133993,2.2134793,-1.9554144,0.0005999879,0.17736356,-0.03642802,6.180213e-05,-9.697216,17.558325,0.24384381,0.22128075,0.10735652,0.06442393,inf,inf,inf,inf,1,1,1,1,3,2,3,2,3,1,1,1,0,0,0
254043923,254043647,42042860,60.1877325,24.832678599999998,-5.3123665,-14.18901,-19.992805,0.22263904,0.116216525,-4.172325e-07,0.5674156,-0.117612444,0.7227667,0.75341964,-0.025598146,0.051155806,0.014507944,1.4800267,-0.8649399,-3.4210365,-1.9180173,0.0005993806,0.21254444,-0.03642802,6.2378254e-05,-9.697216,17.186409,0.24389328,0.22156274,0.107949555,0.06449334,inf,inf,inf,inf,1,1,1,1,3,2,3,2,3,1,1,1,0,0,0
254543929,254543647,42042860,60.1877325,24.832678599999998,-5.0604506,-14.211392,-19.61733,0.22263904,0.116216525,-4.172325e-07,0.24740276,0.007925004,0.7161643,0.7519031,-0.025598146,0.051155806,0.014507944,-0.9176416,-4.093784,2.376052,-1.9250449,0.00060341624,0.20218489,-0.03642802,6.272095e-05,-9.697216,16.810934,0.24396712,0.22143684,0.107692465,0.06445777,inf,inf,inf,inf,1,1,1,1,3,2,3,2,3,1,1,1,0,0,0
255043935,255043648,42042860,60.1877325,24.832678599999998,-5.0117664,-14.194223,-19.248491,0.22263904,0.116216525,-4.172325e-07,-0.22007342,0.06281592,0.5573017,0.60994583,-0.025598146,0.051155806,0.014507944,-0.060366053,2.251169,0.84821224,-1.9443421,0.00061051216,0.18414943,-0.03642802,6.283661e-05,-9.697216,16.442095,0.2441123,0.22136757,0.10833829,0.06444918,inf,inf,inf,inf,1,1,1,1,3,2,3,2,3,1,1,1,0,0,0
255543923,255543647,42042860,60.1877325,24.832678599999998,-5.135199,-14.16767,-18.987452,0.22263904,0.116216525,-4.172325e-07,-0.41668984,0.003951715,0.23575316,0.31584188,-0.025598146,0.051155806,0.014507944,0.5700083,-0.7473439,-1.7419864,-1.9696158,0.0006140852,0.16300316,-0.03642802,6.262697e-05,-9.697216,16.181055,0.24430883,0.22178908,0.109859295,0.06451219,inf,inf,inf,inf,1,1,1,1,3,2,3,2,3,1,1,1,0,0,0
256043934,256043648,42042860,60.1877325,24.832678599999998,-5.2735767,-14.118221,-18.832851,0.22263904,0.116216525,-4.172325e-07,-0.36447465,-0.0031200578,0.035081014,0.1471356,-0.025598146,0.051155806,0.014507944,-1.1741259,-0.89619493,-2.5129871,-1.9818256,0.0006177848,0.15393151,-0.03642802,6.215816e-05,-9.697216,16.026455,0.24470726,0.2218593,0.11013475,0.06449568,inf,inf,inf,inf,1,1,1,1,3,2,3,2,3,1,1,1,0,0,0
256543929,256543648,42042860,60.1877325,24.832678599999998,-5.388058,-14.126014,-18.75257,0.22263904,0.116216525,-4.172325e-07,-0.28786516,-0.043443516,-0.11001697,0.027673893,-0.025598146,0.051155806,0.014507944,-0.7463629,-0.012210263,-0.8794517,-1.9589709,0.000624594,0.17552379,-0.03642802,6.174826e-05,-9.697216,15.946173,0.2458911,0.22221243,0.110713355,0.06463207,inf,inf,inf,inf,1,1,1,1,3,2,3,2,3,1,1,1,0,0,0
257543924,257543648,42042860,60.1877325,24.832678599999998,-5.609483,-14.159728,-18.70824,0.22263904,0.116216525,-4.172325e-07,-0.11659296,0.007041133,-0.04258656,0.08671515,-0.025598146,0.051155806,0.014507944,0.8348321,-0.8227094,0.2818061,-1.9183033,0.0006414016,0.2163992,-0.03642802,6.110226e-05,-9.697216,15.901844,0.25001687,0.22414784,0.11173467,0.06518716,inf,inf,inf,inf,1,1,1,1,3,2,3,2,3,1,1,1,0,0,0
258043929,258043648,42042860,60.1877325,24.832678599999998,-5.652016,-14.150901,-18.730457,0.22263904,0.116216525,-4.172325e-07,0.061755165,0.0699921,-0.55074394,-0.43579727,-0.025598146,0.051155806,0.014507944,1.6803012,-7.529456,-3.438967,-1.9215146,0.0006494023,0.21348673,-0.03642802,6.06702e-05,-9.697216,15.924061,0.250062,0.2241892,0.11055518,0.064993545,inf,inf,inf,inf,1,1,1,1,3,2,3,2,3,1,1,1,0,0,0
258543954,258543647,42042860,60.1877325,24.832678599999998,-5.5692167,-14.0495405,-18.97683,0.22263904,0.116216525,-4.172325e-07,0.2853977,0.33718207,-0.504137,-0.3867809,-0.025598146,0.051155806,0.014507944,0.8593015,-0.47824562,0.25000352,-1.9465848,0.000654134,0.18974991,-0.03642802,5.9842612e-05,-9.697216,16.170433,0.2500515,0.22421631,0.11133321,0.064876124,inf,inf,inf,inf,1,1,1,1,3,2,3,2,3,1,1,1,0,0,0
259043930,259043648,42042860,60.1877325,24.832678599999998,-5.445072,-13.827088,-19.090847,0.22263904,0.116216525,-4.172325e-07,0.2895602,0.60586256,-0.2403511,-0.12730397,-0.025598146,0.051155806,0.014507944,-0.13262968,2.2367384,1.3893155,-1.9505386,0.00065571273,0.18586689,-0.03642802,5.954662e-05,-9.697216,16.28445,0.25006816,0.22470866,0.10960313,0.06482687,inf,inf,inf,inf,1,1,1,1,3,2,3,2,3,1,1,1,0,0,0
259543926,259543648,42042860,60.1877325,24.832678599999998,-5.316558,-13.463454,-19.14965,0.22263904,0.116216525,-4.172325e-07,0.19780172,0.8545216,-0.07256877,0.009367231,-0.025598146,0.051155806,0.014507944,-1.3204648,1.3909448,-1.4048563,-1.947183,0.0006565812,0.18940207,-0.03642802,5.965067e-05,-9.697216,16.343254,0.2500055,0.2246936,0.10884813,0.064750455,inf,inf,inf,inf,1,1,1,1,3,2,3,2,3,1,1,1,0,0,0
260044128,260043647,42042860,60.1877325,24.832678599999998,-5.228047,-13.020221,-19.141088,0.22263904,0.116216525,-4.172325e-07,0.0704081,0.9173499,0.06258287,0.1153047,-0.025598146,0.051155806,0.014507944,0.7353301,-0.3942135,1.563607,-1.9352258,0.00065886864,0.20114139,-0.03642802,5.996763e-05,-9.697216,16.334692,0.24982472,0.22458762,0.107953414,0.0646427,inf,inf,inf,inf,1,1,1,1,3,2,3,2,3,1,1,1,0,0,0
260544112,260543648,42042860,60.1877325,24.832678599999998,-5.2361484,-12.570137,-19.070595,0.22263904,0.116216525,-4.172325e-07,-0.07378709,0.88381404,0.1418142,0.17575087,-0.025598146,0.051155806,0.014507944,-2.4750464,-2.9004102,0.37164596,-1.9602602,0.00066414813,0.17636606,-0.03642802,6.0392624e-05,-9.697216,16.264198,0.24964859,0.22490169,0.107414335,0.06461057,inf,inf,inf,inf,1,1,1,1,3,2,3,2,3,1,1,1,0,0,0
261043924,261043647,42042860,60.1877325,24.832678599999998,-5.304726,-12.151411,-18.984268,0.22263904,0.116216525,-4.172325e-07,-0.22096784,0.8554816,0.22326995,0.2515001,-0.025598146,0.051155806,0.014507944,-2.2813194,0.38031206,-0.53420854,-1.9818431,0.00067116175,0.1529317,-0.03642802,6.075793e-05,-9.697216,16.177872,0.24950397,0.22472905,0.10762997,0.06454869,inf,inf,inf,inf,1,1,1,1,3,2,3,2,3,1,1,1,0,0,0
261543931,261543648,42042860,60.1877325,24.832678599999998,-5.459736,-11.731113,-18.876556,0.22263904,0.116216525,-4.172325e-07,-0.38366377,0.79629356,0.1464247,0.17882265,-0.025598146,0.051155806,0.014507944,0.3909992,-0.14819649,-2.506108,-1.9401954,0.00067809277,0.19793214,-0.03642802,6.1066305e-05,-9.697216,16.07016,0.2493122,0.22450301,0.10806861,0.06449019,inf,inf,inf,inf,1,1,1,1,3,2,3,2,3,1,1,1,0,0,0
262043927,262043648,42042860,60.1877325,24.832678599999998,-5.6413918,-11.395808,-18.81166,0.22263904,0.116216525,-4.172325e-07,-0.32701978,0.5350346,0.0049626064,0.049753424,-0.025598146,0.051155806,0.014507944,0.42822817,-0.64107454,-1.1466297,-1.9393327,0.0006844307,0.20169163,-0.03642802,6.117545e-05,-9.697216,16.005264,0.24918422,0.22471908,0.1087219,0.064495705,inf,inf,inf,inf,1,1,1,1,3,2,3,2,3,1,1,1,0,0,0
262544114,262543647,42042860,60.1877325,24.832678599999998,-5.747434,-11.191377,-18.791128,0.22263904,0.116216525,-4.172325e-07,-0.12889953,0.30579692,-0.054649647,0.007308137,-0.025598146,0.051155806,0.014507944,1.2967778,0.12406838,1.8743225,-1.9235643,0.0006885977,0.21638484,-0.03642802,6.1018014e-05,-9.697216,15.984732,0.24908656,0.22445862,0.10931707,0.06446569,inf,inf,inf,inf,1,1,1,1,3,2,3,2,3,1,1,1,0,0,0
263043924,263043648,42042860,60.1877325,24.832678599999998,-5.784826,-11.123819,-18.768755,0.22263904,0.116216525,-4.172325e-07,-0.0044232723,0.006991531,-0.043340243,0.02919759,-0.025598146,0.051155806,0.014507944,1.8480368,-3.591016,-0.08868602,-1.9059285,0.00068860076,0.23374651,-0.03642802,6.0834787e-05,-9.697216,15.962358,0.24905948,0.22420728,0.10983144,0.06446851,inf,inf,inf,inf,1,1,1,1,3,2,3,2,3,1,1,1,0,0,0
263543957,263543648,42042860,60.1877325,24.832678599999998,-5.744397,-11.184559,-18.757063,0.22263904,0.116216525,-4.172325e-07,0.11910536,-0.20177369,-0.061339762,0.013953681,-0.025598146,0.051155806,0.014507944,-1.0573162,2.1592338,1.2608174,-1.892151,0.00068488147,0.24481033,-0.03642802,6.068638e-05,-9.697216,15.950666,0.24903949,0.22395334,0.110194,0.06447161,inf,inf,inf,inf,1,1,1,1,3,2,3,2,3,1,1,1,0,0,0
264043931,264043648,42042860,60.1877325,24.832678599999998,-5.69959,-11.278267,-18.766754,0.22263904,0.116216525,-4.172325e-07,0.06774157,-0.18753383,-0.118248574,-0.048486542,-0.025598146,0.051155806,0.014507944,-0.86530215,-2.5862272,-1.5629338,-1.9041888,0.000682416,0.23228617,-0.03642802,6.0600032e-05,-9.697216,15.960358,0.24910338,0.22419204,0.10956843,0.06450718,inf,inf,inf,inf,1,1,1,1,3,2,3,2,3,1,1,1,0,0,0
264543928,264543648,42042860,60.1877325,24.832678599999998,-5.6447253,-11.486029,-18.853132,0.22263904,0.116216525,-4.172325e-07,0.146817,-0.7199343,-0.1875926,-0.119508624,-0.025598146,0.051155806,0.014507944,-0.91725814,0.3668845,3.781932,-1.949711,0.0006835009,0.18864068,-0.03642802,6.044416e-05,-9.697216,16.046736,0.24916217,0.22398424,0.11013708,0.06451226,inf,inf,inf,inf,1,1,1,1,3,2,3,2,3,1,1,1,0,0,0
265043956,265043648,42042860,60.1877325,24.832678599999998,-5.5880337,-11.9517765,-18.880531,0.22263904,0.116216525,-4.172325e-07,0.082685165,-1.1308311,-0.059039917,0.015294133,-0.025598146,0.051155806,0.014507944,1.7636058,-1.2777388,-1.1514323,-1.9583497,0.00067655655,0.17836425,-0.03642802,6.0494687e-05,-9.697216,16.074135,0.2492678,0.22381487,0.11024133,0.06455003,inf,inf,inf,inf,1,1,1,1,3,2,3,2,3,1,1,1,0,0,0
265543930,265543647,42042860,60.1877325,24.832678599999998,-5.5642395,-12.568484,-18.848862,0.22263904,0.116216525,-4.172325e-07,0.0007570149,-1.339473,-0.053014413,0.021418964,-0.025598146,0.051155806,0.014507944,-0.34212357,-1.5733793,-0.6202047,-1.9524068,0.00067015033,0.17985071,-0.03642802,6.081516e-05,-9.697216,16.042465,0.24938148,0.22412494,0.10951049,0.06461446,inf,inf,inf,inf,1,1,1,1,3,2,3,2,3,1,1,1,0,0,0
266043924,266043647,42042860,60.1877325,24.832678599999998,-5.604372,-13.230203,-18.847889,0.22263904,0.116216525,-4.172325e-07,-0.078419946,-1.2781615,-0.094793476,-0.01756883,-0.025598146,0.051155806,0.014507944,0.78724897,-1.2873079,-0.31696498,-1.9452202,0.0006703944,0.18698886,-0.03642802,6.1083e-05,-9.697216,16.041492,0.24948078,0.22398752,0.10886888,0.06459222,inf,inf,inf,inf,1,1,1,1,3,2,3,2,3,1,1,1,0,0,0
266543934,266543648,42042860,60.1877325,24.832678599999998,-5.6604347,-13.796864,-18.841875,0.22263904,0.116216525,-4.172325e-07,-0.06152143,-0.94752127,-0.10316829,-0.015459579,-0.025598146,0.051155806,0.014507944,1.1618876,-1.0007404,-1.0178248,-1.9461316,0.0006770734,0.18645519,-0.03642802,6.1162355e-05,-9.697216,16.035479,0.24956326,0.22385387,0.10851523,0.06454378,inf,inf,inf,inf,1,1,1,1,3,2,3,2,3,1,1,1,0,0,0
267043925,267043647,42042860,60.1877325,24.832678599999998,-5.719346,-14.176442,-18.843918,0.22263904,0.116216525,-4.172325e-07,-0.07160313,-0.53088903,-0.11186207,-0.01712542,-0.025598146,0.051155806,0.014507944,-1.9165089,1.2101861,1.1777036,-1.9567622,0.00068097375,0.17551628,-0.03642802,6.1004284e-05,-9.697216,16.037521,0.2496627,0.2242049,0.109410524,0.06456375,inf,inf,inf,inf,1,1,1,1,3,2,3,2,3,1,1,1,0,0,0
267543923,267543647,42042860,60.1877325,24.832678599999998,-5.7656407,-14.354267,-18.848608,0.22263904,0.116216525,-4.172325e-07,-0.082281604,-0.18117456,-0.1496961,-0.047542848,-0.025598146,0.051155806,0.014507944,0.17264731,0.6251139,0.027438441,-1.9386599,0.0006748008,0.19365324,-0.03642802,6.0719754e-05,-9.697216,16.042212,0.24976823,0.22411533,0.11066376,0.06455971,inf,inf,inf,inf,1,1,1,1,3,2,3,2,3,1,1,1,0,0,0
268043924,268043648,42042860,60.1877325,24.832678599999998,-5.807101,-14.373652,-18.855911,0.22263904,0.116216525,-4.172325e-07,-0.042094808,0.0727072,-0.1331592,-0.022956837,-0.025598146,0.051155806,0.014507944,-1.014309,-0.39606714,4.2109203,-1.9296749,0.0006623952,0.20257825,-0.03642802,6.0465623e-05,-9.697216,16.049515,0.24987403,0.22403434,0.1110763,0.064550504,inf,inf,inf,inf,1,1,1,1,3,2,3,2,3,1,1,1,0,0,0
268543964,268543648,42042860,60.1877325,24.832678599999998,-5.811193,-14.307169,-18.86835,0.22263904,0.116216525,-4.172325e-07,0.0035836813,0.15143032,-0.14265388,-0.025562061,-0.025598146,0.051155806,0.014507944,-1.9969149,0.79312575,-0.6199585,-1.9438809,0.00065117964,0.18920277,-0.03642802,6.0322036e-05,-9.697216,16.061953,0.24994723,0.22392014,0.11061331,0.06451667,inf,inf,inf,inf,1,1,1,1,3,2,3,2,3,1,1,1,0,0,0
269043928,269043648,42042860,60.1877325,24.832678599999998,-5.8039565,-14.180271,-18.873808,0.22263904,0.116216525,-4.172325e-07,0.043817855,0.38818324,-0.19702764,-0.079416014,-0.025598146,0.051155806,0.014507944,2.0736094,-0.4360492,-1.9745061,-1.8990957,0.000646176,0.23673816,-0.03642802,6.031637e-05,-9.697216,16.067411,0.25000972,0.2242521,0.10983966,0.06453868,inf,inf,inf,inf,1,1,1,1,3,2,3,2,3,1,1,1,0,0,0
269543930,269543648,42042860,60.1877325,24.832678599999998,-5.770556,-13.828203,-18.89388,0.22263904,0.116216525,-4.172325e-07,0.11621496,0.8153968,-0.10744187,0.0067197527,-0.025598146,0.051155806,0.014507944,0.5122977,0.52566004,-1.3042854,-1.5474585,0.00063889765,0.5843283,-0.03642802,6.0335402e-05,-9.697216,16.087484,0.2500726,0.22412422,0.11084836,0.064546995,inf,inf,inf,inf,1,1,1,1,3,2,3,2,3,1,1,1,0,0,0
270043954,270043647,42042860,60.1877325,24.832678599999998,-5.7402024,-13.396316,-18.894985,0.22263904,0.116216525,-4.172325e-07,0.15130588,0.7615064,-0.09913903,0.0048255357,-0.025598146,0.051155806,0.014507944,-0.62740666,-0.56353116,-0.9958099,-1.102231,0.0006345159,1.0278072,-0.03642802,6.022927e-05,-9.697216,16.088589,0.25017792,0.22401085,0.11018988,0.06451205,inf,inf,inf,inf,1,1,1,1,3,2,3,2,3,1,1,1,0,0,0
270543951,270543683,42042860,60.1877325,24.832678599999998,-5.701336,-13.043293,-18.895323,0.22263904,0.116216525,-4.172325e-07,0.14837883,0.5624937,-0.10097901,-0.00071046536,-0.025598146,0.051155806,0.014507944,1.9410089,-2.1610794,0.66422164,-0.5953016,0.00064101693,1.533613,-0.03642802,5.8765618e-05,-9.697216,16.088926,0.25023913,0.22432934,0.112372585,0.06451428,inf,inf,inf,inf,1,1,1,1,3,2,3,2,3,1,1,1,0,0,0
271043919,271043648,42042860,60.1877325,24.832678599999998,-5.67602,-12.813683,-18.89429,0.22263904,0.116216525,-4.172325e-07,0.09425888,0.38641328,-0.095571265,0.0035453,-0.025598146,0.051155806,0.014507944,1.5573324,-0.6099519,3.0873559,-0.069535695,0.0006508257,2.0595345,-0.03642802,5.4404467e-05,-9.697216,16.087894,0.25030825,0.22418365,0.11881018,0.06451824,inf,inf,inf,inf,1,1,1,1,3,2,3,2,3,1,1,1,0,0,0
272043965,272043647,42042860,60.1877325,24.832678599999998,-5.6560087,-12.716451,-18.916313,0.22263904,0.116216525,-4.172325e-07,0.027687307,0.13394113,-0.06395331,0.027797848,-0.025598146,0.051155806,0.014507944,-1.2964615,-0.82752186,1.0567073,0.9000674,0.00066544337,3.0282393,-0.03642802,3.8556267e-05,-9.697216,16.109917,0.25071427,0.22436844,0.13224415,0.06467964,inf,inf,inf,inf,1,1,1,1,3,2,3,2,3,1,1,1,0,0,0
272543922,272543648,42042860,60.1877325,24.832678599999998,-5.6230264,-12.7370205,-18.911325,0.22263904,0.116216525,-4.172325e-07,0.027636008,0.08220544,-0.09389255,-0.0074756844,-0.025598146,0.051155806,0.014507944,1.3121141,-1.3075591,-1.9248674,1.3775619,0.000673254,-2.7787788,-0.03642802,3.1153504e-05,-9.697216,16.104929,0.25085258,0.22421582,0.13304551,0.06463825,inf,inf,inf,inf,1,1,1,1,3,2,3,2,3,1,1,1,0,0,0
273043943,273043648,42042860,60.1877325,24.832678599999998,-5.603743,-12.787101,-18.919312,0.22263904,0.116216525,-4.172325e-07,-0.0059985486,0.06550861,-0.056239657,0.018127706,-0.025598146,0.051155806,0.014507944,1.9459335,1.0799611,-1.6074868,1.8719574,0.0006818603,-2.284816,-0.03642802,2.5940788e-05,-9.697216,16.112915,0.2511187,0.22412494,0.13109398,0.064619005,inf,inf,inf,inf,1,1,1,1,3,2,3,2,3,1,1,1,0,0,0
274043923,274043647,42042860,60.1877325,24.832678599999998,-5.596191,-12.796653,-18.921782,0.22263904,0.116216525,-4.172325e-07,-0.02896867,0.055118833,-0.05941495,-0.008215816,-0.025598146,0.051155806,0.014507944,-1.466284,-1.2397612,-0.8941562,2.7879696,0.000698768,-1.3687435,-0.03642802,2.105723e-05,-9.697216,16.115385,0.25406712,0.22550362,0.12522039,0.06508054,inf,inf,inf,inf,1,1,1,1,3,2,3,2,3,1,1,1,0,0,0
274543927,274543647,42042860,60.1877325,24.832678599999998,-5.611964,-12.778435,-18.924536,0.22263904,0.116216525,-4.172325e-07,-0.03345683,0.011957666,-0.08153211,-0.022169197,-0.025598146,0.051155806,0.014507944,-1.9520441,-1.5376188,0.7414683,-2.998109,0.00070622005,-0.87135834,-0.03642802,2.012097e-05,-9.697216,16.11814,0.2553432,0.22605346,0.12137402,0.06525405,inf,inf,inf,inf,1,1,1,1,3,2,3,2,3,1,1,1,0,0,0
275043955,275043647,42042860,60.1877325,24.832678599999998,-5.612915,-12.767839,-18.930935,0.22263904,0.116216525,-4.172325e-07,0.011034041,-0.022054516,-0.083639525,-0.021733781,-0.025598146,0.051155806,0.014507944,1.8345886,0.12703046,-1.5181404,-2.4702673,0.00071258197,-0.34313172,-0.03642802,1.9790654e-05,-9.697216,16.124538,0.25705916,0.22689955,0.118163005,0.06553491,inf,inf,inf,inf,1,1,1,1,3,2,3,2,3,1,1,1,0,0,0
275543926,275543648,42042860,60.1877325,24.832678599999998,-5.598157,-12.792999,-18.944761,0.22263904,0.116216525,-4.172325e-07,0.037332874,-0.08960994,-0.10833991,-0.043973498,-0.025598146,0.051155806,0.014507944,-1.7698053,1.6967367,1.8334677,-1.9421896,0.0007177301,0.1852084,-0.03642802,1.947314e-05,-9.697216,16.138365,0.25702208,0.2277717,0.113097094,0.06545449,inf,inf,inf,inf,1,1,1,1,3,2,3,2,3,1,1,1,0,0,0
276043937,276043647,42042860,60.1877325,24.832678599999998,-5.6203685,-12.849787,-18.943954,0.22263904,0.116216525,-4.172325e-07,0.0008003757,-0.100989476,-0.07948319,-0.0038295076,-0.025598146,0.051155806,0.014507944,-1.4358624,-2.00264,-2.997322,-1.4895314,0.0007224122,0.6391599,-0.03642802,1.9587864e-05,-9.697216,16.137558,0.25848198,0.22876851,0.11150401,0.065717034,inf,inf,inf,inf,1,1,1,1,3,2,3,2,3,1,1,1,0,0,0
276543922,276543647,42042860,60.1877325,24.832678599999998,-5.6413784,-12.896327,-18.936693,0.22263904,0.116216525,-4.172325e-07,0.019701853,-0.03412685,-0.07694405,0.0039441977,-0.025598146,0.051155806,0.014507944,1.7110678,-1.5666068,-0.36775264,-0.98649263,0.0007281618,1.1435355,-0.03642802,1.9689945e-05,-9.697216,16.130297,0.25969532,0.22968218,0.11060868,0.06587929,inf,inf,inf,inf,1,1,1,1,3,2,3,2,3,1,1,1,0,0,0
277043920,277043648,42042860,60.1877325,24.832678599999998,-5.6408634,-12.918701,-18.92366,0.22263904,0.116216525,-4.172325e-07,0.015621745,-0.0068906345,-0.09423428,-0.008052232,-0.025598146,0.051155806,0.014507944,2.2917016,1.2145678,-2.9246445,-0.48344335,0.0007355984,1.647706,-0.03642802,1.9626455e-05,-9.697216,16.117264,0.25963312,0.23051326,0.10921382,0.06575535,inf,inf,inf,inf,1,1,1,1,3,2,3,2,3,1,1,1,0,0,0
277543920,277543648,42042860,60.1877325,24.832678599999998,-5.605779,-12.948054,-18.896147,0.22263904,0.116216525,-4.172325e-07,0.08920801,-0.0003788386,-0.071728274,0.022541413,-0.025598146,0.051155806,0.014507944,2.4241025,-1.1841202,2.3970363,-0.1187725,0.0007450063,2.0132997,-0.03642802,1.953176e-05,-9.697216,16.08975,0.25889254,0.23040286,0.10819532,0.06542854,inf,inf,inf,inf,1,1,1,1,3,2,3,2,3,1,1,1,0,0,0
278043922,278043647,42042860,60.1877325,24.832678599999998,-5.546708,-12.971978,-18.906637,0.22263904,0.116216525,-4.172325e-07,0.10500047,0.032381658,-0.10356126,-0.01628955,-0.025598146,0.051155806,0.014507944,2.7950528,-2.136864,0.5291089,-0.046065584,0.0007553401,2.0862231,-0.03642802,1.9610186e-05,-9.697216,16.10024,0.25850564,0.23026343,0.10900547,0.06525213,inf,inf,inf,inf,1,1,1,1,3,2,3,2,3,1,1,1,0,0,0
278543928,278543648,42042860,60.1877325,24.832678599999998,-5.508069,-12.969981,-18.916742,0.22263904,0.116216525,-4.172325e-07,0.027499544,0.04945153,-0.060308505,0.012442682,-0.025598146,0.051155806,0.014507944,-1.1278895,-0.30484763,1.2784435,-0.090867564,0.00076617993,2.0417693,-0.03642802,1.994121e-05,-9.697216,16.110346,0.25843024,0.23062465,0.11014588,0.065239854,inf,inf,inf,inf,1,1,1,1,3,2,3,2,3,1,1,1,0,0,0
279043928,279043648,42042860,60.1877325,24.832678599999998,-5.5053005,-12.940599,-18.918312,0.22263904,0.116216525,-4.172325e-07,-0.02898319,0.14767142,-0.002476199,0.050414257,-0.025598146,0.051155806,0.014507944,-1.2021433,0.403669,-0.7150205,-0.1270639,0.00077760365,2.006354,-0.03642802,2.048874e-05,-9.697216,16.111916,0.25802606,0.23027605,0.110634185,0.065080054,inf,inf,inf,inf,1,1,1,1,3,2,3,2,3,1,1,1,0,0,0
279543921,279543647,42042860,60.1877325,24.832678599999998,-5.5121756,-12.885517,-18.903425,0.22263904,0.116216525,-4.172325e-07,-0.04827704,0.15106422,0.03681538,0.07362606,-0.025598146,0.051155806,0.014507944,-3.5106745,-0.73754096,0.60418403,-0.12352106,0.0007888878,2.0106196,-0.03642802,2.1337648e-05,-9.697216,16.097029,0.25780815,0.22993822,0.111030795,0.06497913,inf,inf,inf,inf,1,1,1,1,3,2,3,2,3,1,1,1,0,0,0
280543922,280543648,42042860,60.1877325,24.832678599999998,-5.534581,-12.732347,-18.840742,0.22263904,0.116216525,-4.172325e-07,-0.0099361325,0.111597784,0.028209332,0.074934065,-0.025598146,0.051155806,0.014507944,1.4594876,1.862186,3.9562576,-0.17344053,0.0008126274,1.9632916,-0.03642802,2.3580124e-05,-9.697216,16.034346,0.25757793,0.22972496,0.11107744,0.0648596,inf,inf,inf,inf,1,1,1,1,3,2,3,2,3,1,1,1,0,0,0
281043920,281043647,42042860,60.1877325,24.832678599999998,-5.527516,-12.711427,-18.813625,0.22263904,0.116216525,-4.172325e-07,0.02521517,-0.0075752605,-0.056461137,-0.00653182,-0.025598146,0.051155806,0.014507944,1.9115102,0.518378,-1.5359681,-0.16836555,0.0008249623,1.9690981,-0.03642802,2.4874047e-05,-9.697216,16.007229,0.25771642,0.22943527,0.11104245,0.06481833,inf,inf,inf,inf,1,1,1,1,3,2,3,2,3,1,1,1,0,0,0
281543929,281543650,42042860,60.1877325,24.832678599999998,-5.5514092,-12.736122,-18.814867,0.22263904,0.116216525,-4.172325e-07,-0.010547099,-0.021825993,-0.031225523,0.01990569,-0.025598146,0.051155806,0.014507944,-0.79104346,-0.55550003,-1.2692063,-0.18545803,0.0008370668,1.9512509,-0.03642802,2.6365287e-05,-9.697216,16.00847,0.259285,0.22967565,0.11282574,0.06512725,inf,inf,inf,inf,1,1,1,1,3,2,3,2,3,1,1,1,0,0,0
282043923,282043647,42042860,60.1877325,24.832678599999998,-5.5642323,-12.744164,-18.794865,0.22263904,0.116216525,-4.172325e-07,-0.0066595133,-0.023321643,-0.023432022,0.033460364,-0.025598146,0.051155806,0.014507944,-1.4222059,-0.24558896,3.8217242,-0.18832633,0.0008496772,1.9490273,-0.03642802,2.7603346e-05,-9.697216,15.988468,0.25984573,0.23007731,0.11214738,0.06514536,inf,inf,inf,inf,1,1,1,1,3,2,3,2,3,1,1,1,0,0,0
282543930,282543648,42042860,60.1877325,24.832678599999998,-5.5618963,-12.756629,-18.782211,0.22263904,0.116216525,-4.172325e-07,0.017425468,-0.030907948,-0.06605275,-0.008356746,-0.025598146,0.051155806,0.014507944,1.8591802,1.1463625,-5.289423,-0.17505974,0.0008626506,1.9628206,-0.03642802,2.8961958e-05,-9.697216,15.975815,0.26133075,0.23031418,0.11313844,0.0653451,inf,inf,inf,inf,1,1,1,1,3,2,3,2,3,1,1,1,0,0,0
283043922,283043648,42042860,60.1877325,24.832678599999998,-5.6053357,-12.829963,-18.79353,0.22263904,0.116216525,-4.172325e-07,-0.054457135,-0.11862586,-0.042553607,0.0071614548,-0.025598146,0.051155806,0.014507944,-0.42195454,1.1372511,-1.1374403,-0.16647045,0.00087575655,1.9704381,-0.03642802,3.0294472e-05,-9.697216,15.987133,0.26384047,0.23099743,0.114988625,0.06574045,inf,inf,inf,inf,1,1,1,1,3,2,3,2,3,1,1,1,0,0,0
283543923,283543647,42042860,60.1877325,24.832678599999998,-5.6316843,-12.881509,-18.795717,0.22263904,0.116216525,-4.172325e-07,0.08726064,0.030965477,0.0041096252,0.04606253,-0.025598146,0.051155806,0.014507944,1.3953195,1.4061589,3.7548993,-0.20709309,0.0008892149,1.9306867,-0.03642802,3.1596624e-05,-9.697216,15.989321,0.26674488,0.23239529,0.11714389,0.06625208,inf,inf,inf,inf,1,1,1,1,3,2,3,2,3,1,1,1,0,0,0
284043924,284043648,42042860,60.1877325,24.832678599999998,-5.5704846,-12.884917,-18.735868,0.22263904,0.116216525,-4.172325e-07,0.2393111,-0.01468149,0.025964824,0.056617707,-0.025598146,0.051155806,0.014507944,-1.0858154,-1.9524083,2.289488,-1.1943223,0.0008993394,0.9434926,-0.03642802,3.2541495e-05,-9.697216,15.929472,0.26882315,0.23309541,0.11774029,0.06648706,inf,inf,inf,inf,1,1,1,1,3,2,3,2,3,1,1,1,0,0,0
284543926,284543648,42042860,60.1877325,24.832678599999998,-5.4388375,-12.823781,-18.797731,0.22263904,0.116216525,-4.172325e-07,0.3708972,0.082402945,-0.12622681,-0.11429189,-0.025598146,0.051155806,0.014507944,2.587135,4.083336,-1.4784912,-1.8374072,0.00090227183,0.29891855,-0.03642802,3.3158416e-05,-9.697216,15.991335,0.27531472,0.23520368,0.124840856,0.06754964,inf,inf,inf,inf,1,1,1,1,3,2,3,2,3,1,1,1,0,0,0
285043955,285043647,42042860,60.1877325,24.832678599999998,-5.221078,-12.805915,-18.800558,0.22263904,0.116216525,-4.172325e-07,0.4843075,-0.12082598,0.026118696,0.03623334,-0.025598146,0.051155806,0.014507944,-1.1795242,-7.0999765,-0.30472124,-1.9818734,0.00090200873,0.15581289,-0.03642802,3.4444813e-05,-9.697216,15.994162,0.30293855,0.24677639,0.14254263,0.070521176,inf,inf,inf,inf,1,1,1,1,3,2,3,2,3,1,1,1,0,0,0
285543931,285543648,42042860,60.1877325,24.832678599999998,-4.972117,-12.875633,-18.85693,0.22263904,0.116216525,-4.172325e-07,0.5319799,-0.28265372,-0.13171217,-0.12862183,-0.025598146,0.051155806,0.014507944,-0.28276026,2.5874567,0.09318794,-1.988449,0.00090300833,0.15211159,-0.03642802,3.6783946e-05,-9.697216,16.050533,0.35463962,0.26612204,0.1702265,0.0744233,inf,inf,inf,inf,1,1,1,1,3,2,3,2,3,1,1,1,0,0,0
286043925,286043648,42042860,60.1877325,24.832678599999998,-4.6717453,-13.076408,-18.924967,0.22263904,0.116216525,-4.172325e-07,0.6561406,-0.5251213,-0.096007764,-0.097314864,-0.025598146,0.051155806,0.014507944,-2.7264676,2.1785083,0.18091705,-1.9423442,0.0009044021,0.19720532,-0.03642802,3.9355837e-05,-9.697216,16.11857,0.42200965,0.28579295,0.19920234,0.07786718,inf,inf,inf,inf,1,1,1,1,3,2,3,2,3,1,1,1,0,0,1
286543922,286543647,42042860,60.1877325,24.832678599999998,-4.3081713,-13.401012,-18.96514,0.22263904,0.116216525,-4.172325e-07,0.74227893,-0.7256722,-0.10572701,-0.10045461,-0.025598146,0.051155806,0.014507944,-1.4224085,3.705863,0.9443959,-1.8818741,0.0009067557,0.25384292,-0.03642802,4.224119e-05,-9.697216,16.158743,0.5060654,0.30585027,0.22961457,0.08092207,inf,inf,inf,inf,1,1,1,1,3,2,3,2,3,1,1,1,0,0,1
287043924,287043648,42042860,60.1877325,24.832678599999998,-3.9430225,-13.778656,-19.015623,0.22263904,0.116216525,-4.172325e-07,0.6902349,-0.791301,-0.15912198,-0.14190997,-0.025598146,0.051155806,0.014507944,-2.6520197,-3.9741483,-2.5961735,-1.8582578,0.00091017917,0.2762723,-0.03642802,4.5453122e-05,-9.697216,16.209227,0.6072124,0.32714063,0.2604493,0.08371545,inf,inf,inf,inf,1,1,1,1,3,2,3,2,3,1,1,1,0,0,1
287543928,287543648,42042860,60.1877325,24.832678599999998,-3.6196554,-14.135404,-19.065657,0.22263904,0.116216525,-4.172325e-07,0.60676193,-0.6916358,-0.16471544,-0.13238373,-0.025598146,0.051155806,0.014507944,-2.8629963,-0.19003123,-0.7150928,-1.8817974,0.000914276,0.25362408,-0.03642802,4.8901675e-05,-9.697216,16.25926,0.725238,0.34658885,0.29127485,0.08591678,inf,inf,inf,inf,1,1,1,1,3,2,3,2,3,1,1,1,0,0,1
288043924,288043647,42042860,60.1877325,24.832678599999998,-3.3385303,-14.454059,-19.108019,0.22263904,0.116216525,-4.172325e-07,0.5403381,-0.6264937,-0.13217825,-0.08726158,-0.025598146,0.051155806,0.014507944,-0.28774366,-3.7277205,-0.82527745,-1.900323,0.00091871043,0.23594387,-0.03642802,5.2502535e-05,-9.697216,16.301622,0.8598204,0.3648874,0.322839,0.08773575,inf,inf,inf,inf,1,1,1,1,3,2,3,2,3,1,1,1,0,0,1
288543931,288543648,42042860,60.1877325,24.832678599999998,-3.1006413,-14.735556,-19.150673,0.22263904,0.116216525,-4.172325e-07,0.43329328,-0.53177994,-0.2040195,-0.15270786,-0.025598146,0.051155806,0.014507944,-0.75948966,-2.158286,1.7084492,-1.9155437,0.0009234848,0.22267804,-0.03642802,5.6255496e-05,-9.697216,16.344276,1.0108284,0.38394898,0.35552225,0.08950456,inf,inf,inf,inf,1,1,1,1,3,2,3,2,3,1,1,1,0,0,1
289043924,289043648,42042860,60.1877325,24.832678599999998,-2.929185,-14.98201,-19.241304,0.22263904,0.116216525,-4.172325e-07,0.27263966,-0.49217683,-0.19369757,-0.14566241,-0.025598146,0.051155806,0.014507944,-4.7879405,-0.79538953,0.5575978,-1.9415553,0.0009285647,0.19698304,-0.03642802,6.013659e-05,-9.697216,16.434908,1.1783034,0.39925802,0.38916764,0.090664744,inf,inf,inf,inf,1,1,1,1,3,2,3,2,3,1,1,1,0,0,1
289543930,289543647,42042860,60.1877325,24.832678599999998,-2.80869,-15.192407,-19.296886,0.22263904,0.116216525,-4.172325e-07,0.23398155,-0.4021501,-0.160677,-0.10734844,-0.025598146,0.051155806,0.014507944,0.28296968,0.0067469343,0.5116412,-1.9540725,0.00093391375,0.1857987,-0.03642802,6.414432e-05,-9.697216,16.49049,1.3620754,0.41264626,0.4228461,0.09153487,inf,inf,inf,inf,1,1,1,1,3,2,3,2,3,1,1,1,0,0,1
290043951,290043647,42042860,60.1877325,24.832678599999998,-2.6883743,-15.349899,-19.33051,0.22263904,0.116216525,-4.172325e-07,0.3607059,-0.2781651,-0.21435335,-0.17714678,-0.025598146,0.051155806,0.014507944,0.9951113,-7.1823435,-4.670056,-1.9855682,0.0009395719,0.1567296,-0.03642802,6.826869e-05,-9.697216,16.524113,1.5621997,0.42407185,1.3340513,0.09214778,inf,inf,inf,inf,0,1,0,1,3,2,3,2,3,1,1,1,0,0,1
290543968,290543648,42042860,60.1877325,24.832678599999998,-2.430793,-15.431801,-19.511639,0.22263904,0.116216525,-4.172325e-07,0.6588464,-0.16543108,-0.37313724,-0.34006616,-0.025598146,0.051155806,0.014507944,-2.7844272,-0.07555675,0.862815,-2.0023477,0.0009455687,0.14067179,-0.03642802,7.23841e-05,-9.697216,16.705242,1.7793889,0.4369426,1.6023445,0.09295505,inf,inf,inf,inf,0,1,0,1,3,2,3,2,3,1,1,1,0,0,1
291043945,291043648,42042860,60.1877325,24.832678599999998,-2.06631,-15.487869,-19.631807,0.22263904,0.116216525,-4.172325e-07,0.8063214,-0.15237546,-0.29023713,-0.23001131,-0.025598146,0.051155806,0.014507944,-4.014973,-1.029843,1.8862708,-2.0235128,0.0009517793,0.12015601,-0.03642802,7.6594326e-05,-9.697216,16.82541,2.0144246,0.4448734,1.8669468,0.09320323,inf,inf,inf,inf,0,1,0,1,3,2,3,2,3,1,1,1,0,0,1
291543964,291543648,42042860,60.1877325,24.832678599999998,-1.6411023,-15.531586,-19.713121,0.22263904,0.116216525,-4.172325e-07,0.8918761,-0.12840576,-0.25919273,-0.17323822,-0.025598146,0.051155806,0.014507944,-0.08558732,0.15777816,-0.560833,-2.044095,0.00095834787,0.10003748,-0.03642802,8.087369e-05,-9.697216,16.906725,2.2665515,0.4511391,2.1333132,0.093325414,inf,inf,inf,inf,0,1,0,1,3,2,3,2,3,1,1,1,0,0,1
292043925,292043648,42042860,60.1877325,24.832678599999998,-1.1826717,-15.580938,-19.78393,0.22263904,0.116216525,-4.172325e-07,0.9663409,-0.15642251,-0.23083626,-0.11955831,-0.025598146,0.051155806,0.014507944,-0.39697772,-2.383986,0.4793605,-2.0422056,0.0009652426,0.10273059,-0.03642802,8.523922e-05,-9.697216,16.977533,2.5358644,0.4598393,2.2228763,0.093807116,inf,inf,inf,inf,0,1,0,1,3,2,3,2,3,1,1,1,0,0,1
292544115,292543648,42042860,60.1877325,24.832678599999998,-0.6611777,-15.639451,-19.861992,0.22263904,0.116216525,-4.172325e-07,1.1021615,-0.24214147,-0.21407112,-0.10368435,-0.025598146,0.051155806,0.014507944,-2.9003665,-4.1936083,1.7329631,-2.0072489,0.00097256387,0.13830288,-0.03642802,8.966824e-05,-9.697216,17.055595,2.822455,0.46349287,2.541656,0.09380325,inf,inf,inf,inf,0,1,0,1,3,2,3,2,3,1,1,1,0,0,1
293044093,293043648,42042860,60.1877325,24.832678599999998,-0.07305558,-15.777721,-19.944265,0.22263904,0.116216525,-4.172325e-07,1.2457247,-0.42686948,-0.24347843,-0.13690689,-0.025598146,0.051155806,0.014507944,4.2333527,-0.7165017,3.417873,-1.9720286,0.0009802016,0.1739666,-0.03642802,9.4274415e-05,-9.697216,17.137869,3.1267405,0.46608365,2.7781234,0.09377396,inf,inf,inf,inf,0,1,0,1,3,2,3,2,3,1,1,1,0,0,1
293544109,293543648,42042860,60.1877325,24.832678599999998,0.5719571,-16.019302,-20.015942,0.22263904,0.116216525,-4.172325e-07,1.3451066,-0.62919873,-0.25864732,-0.15780412,-0.025598146,0.051155806,0.014507944,-0.7067289,-2.2412543,0.0938205,-1.9965192,0.0009883781,0.15005028,-0.03642802,9.8997116e-05,-9.697216,17.209545,3.4485679,0.47197083,2.9615786,0.09421503,inf,inf,inf,inf,0,1,0,1,3,2,3,2,3,1,1,1,0,0,1
294044122,294043686,42042860,60.1877325,24.832678599999998,1.2754799,-16.302723,-20.121765,0.22263904,0.116216525,-4.172325e-07,1.4588684,-0.5898341,-0.22876202,-0.14078797,-0.025598146,0.051155806,0.014507944,-0.78581965,1.7179856,0.019781975,-1.9976236,0.0009969715,0.14923353,-0.03642802,0.00010370561,-9.697216,17.315369,3.7878325,0.4729674,3.3615565,0.09418665,inf,inf,inf,inf,0,1,0,1,3,2,3,2,3,1,1,1,0,0,1
294544102,294543648,42042860,60.1877325,24.832678599999998,2.0405834,-16.543413,-20.175085,0.22263904,0.116216525,-4.172325e-07,1.5818797,-0.4799135,-0.22823915,-0.11950371,-0.025598146,0.051155806,0.014507944,-0.11052992,4.1435256,-0.027553927,-1.9754187,0.0010060255,0.1717121,-0.03642802,0.00010845642,-9.697216,17.368689,4.144907,0.4733651,3.5446637,0.094141,inf,inf,inf,inf,0,1,0,1,3,2,3,2,3,1,1,1,0,0,1
295044127,295043648,42042860,60.1877325,24.832678599999998,2.866477,-16.727333,-20.227089,0.22263904,0.116216525,-4.172325e-07,1.7157966,-0.40027443,-0.29320446,-0.15207152,-0.025598146,0.051155806,0.014507944,1.9727815,2.3424306,2.3795707,-1.9683769,0.001015462,0.17910056,-0.03642802,0.00011325571,-9.697216,17.420692,4.5199814,0.47329462,3.7110653,0.09411229,inf,inf,inf,inf,0,1,0,1,3,2,3,2,3,1,1,1,0,0,1
295544106,295543647,42042860,60.1877325,24.832678599999998,3.7479262,-16.885365,-20.282198,0.22263904,0.116216525,-4.172325e-07,1.7768855,-0.39763743,-0.29900518,-0.13208736,-0.025598146,0.051155806,0.014507944,-2.6170871,-0.97522116,-0.5163362,-1.9738375,0.0010252384,0.17394112,-0.03642802,0.000118072974,-9.697216,17.475801,4.913367,0.47722617,3.9193163,0.094559155,inf,inf,inf,inf,0,1,0,1,3,2,3,2,3,1,1,1,0,0,1
296044093,296043648,42042860,60.1877325,24.832678599999998,4.642146,-17.03091,-20.33308,0.22263904,0.116216525,-4.172325e-07,1.6628888,-0.31979093,-0.30653238,-0.12148275,-0.025598146,0.051155806,0.014507944,-1.5211304,1.7607226,-0.43498594,-1.9788284,0.001035459,0.16814664,-0.03642802,0.00012288659,-9.697216,17.526684,5.324747,0.47653615,4.1242523,0.09451556,inf,inf,inf,inf,0,1,0,1,3,2,3,2,3,1,1,1,0,0,1
297044130,297043648,42042860,60.1877325,24.832678599999998,5.0246696,-16.805618,-20.549807,0.22263904,0.116216525,-4.172325e-07,-1.0130723,0.8703073,-0.38000944,-0.20896225,-0.025598146,0.051155806,0.014507944,-3.3214517,-4.1364813,1.5349438,-1.9204968,0.001057336,0.2218317,-0.03642802,0.00013350768,-9.697216,17.74341,6.2000837,0.47886413,4.756944,0.09594294,inf,inf,inf,inf,0,1,0,1,3,2,3,2,3,1,1,1,0,0,1
297544147,297543648,42042860,60.1877325,24.832678599999998,4.2214913,-16.457819,-20.761454,0.22263904,0.116216525,-4.172325e-07,-1.7994064,0.5330753,-0.37051517,-0.27275127,-0.025598146,0.051155806,0.014507944,-5.85832,-1.9481653,-0.46926457,-1.9587187,0.0010620453,0.19311625,-0.03642802,0.00013896593,-9.697216,17.955057,6.6569057,0.47768077,1.0367527,0.09728875,inf,inf,inf,inf,0,1,0,1,3,2,3,2,3,1,1,1,0,0,1
298544177,298543648,42042860,60.1877325,24.832678599999998,1.9059298,-16.371866,-21.142355,0.22263904,0.116216525,-4.172325e-07,-2.6122677,-0.23312841,0.015831606,-0.038981847,-0.025598146,0.051155806,0.014507944,-3.466944,-0.3569453,0.05569066,-1.951063,0.0010671177,0.21085063,-0.03642802,0.00014907574,-9.697216,18.335958,7.6068354,0.48014906,1.1074352,0.098730005,inf,inf,inf,inf,0,1,0,1,3,2,3,2,3,1,1,1,0,0,1
299044150,299043647,42042860,60.1877325,24.832678599999998,0.5428799,-16.575825,-21.1509,0.22263904,0.116216525,-4.172325e-07,-2.8691378,-0.5966953,0.19358519,0.122248985,-0.025598146,0.051155806,0.014507944,-2.6177988,-6.5303555,0.34271842,-1.9445871,0.0010710359,0.2165751,-0.03642802,0.00015412652,-9.697216,18.344503,8.104809,0.4793849,1.1462406,0.09914769,inf,inf,inf,inf,0,1,0,1,3,2,3,2,3,1,1,1,0,0,1
299544139,299543648,42042860,60.1877325,24.832678599999998,-0.9428851,-16.945969,-21.060936,0.22263904,0.116216525,-4.172325e-07,-3.1177647,-1.0126473,0.24548481,0.19386226,-0.025598146,0.051155806,0.014507944,2.8324935,-2.5878084,-0.94932264,-1.9454924,0.0010755326,0.21445405,-0.03642802,0.00015903702,-9.697216,18.25454,8.616736,0.47872666,1.1851525,0.09954756,inf,inf,inf,inf,0,1,0,1,3,2,3,2,3,1,1,1,0,0,1
300044167,300043648,42042860,60.1877325,24.832678599999998,-2.6049218,-17.52356,-20.876081,0.22263904,0.116216525,-4.172325e-07,-3.3558185,-1.3801273,0.26589987,0.2870427,-0.025598146,0.051155806,0.014507944,4.0252366,-2.181166,0.949887,-1.992011,0.0010804891,0.17337419,-0.03642802,0.00016406202,-9.697216,18.069685,9.145751,0.47815156,1.2247312,0.10016277,inf,inf,inf,inf,0,1,0,1,3,2,3,2,3,1,1,1,0,0,1
300544285,300543648,42042860,60.1877325,24.832678599999998,-4.4063807,-18.228706,-20.637299,0.22263904,0.116216525,-4.172325e-07,-3.352864,-1.264148,0.28490913,0.38835558,-0.025598146,0.051155806,0.014507944,3.990678,2.7213655,-1.9603388,-2.0404015,0.0010870147,0.12778038,-0.03642802,0.00016867492,-9.697216,17.830902,9.688975,0.48210314,1.2677474,0.100462556,inf,inf,inf,inf,0,1,0,1,3,2,3,2,3,1,1,1,0,0,1
301044172,301043648,42042860,60.1877325,24.832678599999998,-6.128141,-18.82048,-20.414854,0.22263904,0.116216525,-4.172325e-07,-3.1440325,-1.1341294,0.38448262,0.4878677,-0.025598146,0.051155806,0.014507944,-1.3385456,-5.0750904,-2.263921,-2.0507295,0.0010944367,0.118161045,-0.03642802,0.00017255038,-9.697216,17.608458,10.24446,0.48144275,1.3109115,0.09946094,inf,inf,inf,inf,0,1,0,1,3,2,3,2,3,1,1,1,0,0,1
301544482,301543648,42042860,60.1877325,24.832678599999998,-7.7255187,-19.304676,-20.156088,0.22263904,0.116216525,-4.172325e-07,-2.87281,-1.0222878,0.6373935,0.6992386,-0.025598146,0.051155806,0.014507944,-7.014452,-2.4083824,1.5821663,-2.0460184,0.0011019382,0.12360627,-0.03642802,0.00017573072,-9.697216,17.349691,10.810735,0.48051766,1.3525381,0.0983976,inf,inf,inf,inf,0,1,0,1,3,2,3,2,3,1,1,1,0,0,1
302043914,302043647,42042860,60.1877325,24.832678599999998,-9.143931,-19.73085,-19.801489,0.22263904,0.116216525,-4.172325e-07,-2.5730617,-0.884294,0.9236906,0.93821836,-0.025598146,0.051155806,0.014507944,1.2429726,4.606299,2.2904575,-2.0569224,0.0011114866,0.113395244,-0.03642802,0.00017981563,-9.697216,16.995092,11.406098,0.4838909,1.3970183,0.09795539,inf,inf,inf,inf,0,1,0,1,3,2,3,2,3,1,1,1,0,0,1
302544047,302543648,42042860,60.1877325,24.832678599999998,-10.444819,-20.110334,-19.33789,0.22263904,0.116216525,-4.172325e-07,-2.3739045,-0.8724484,1.0083507,1.0110576,-0.025598146,0.051155806,0.014507944,3.6444564,-0.19952641,-0.6090591,-2.0481715,0.0011202337,0.12272862,-0.03642802,0.00018320166,-9.697216,16.531494,12.012892,0.4824841,1.4404379,0.09732383,inf,inf,inf,inf,0,1,0,1,3,2,3,2,3,1,1,1,0,0,1
303044036,303043648,42042860,60.1877325,24.832678599999998,-11.653065,-20.50802,-18.73516,0.22263904,0.116216525,-4.172325e-07,-2.1762338,-0.823377,1.3593639,1.3599751,-0.025598146,0.051155806,0.014507944,0.27566782,-1.0851269,2.6085644,-2.0325174,0.001129006,0.13902144,-0.03642802,0.00018627639,-9.697216,15.928764,12.633831,0.48094872,1.4815841,0.096843764,inf,inf,inf,inf,0,1,0,1,3,2,3,2,3,1,1,1,0,0,1
303543920,303543648,42042860,60.1877325,24.832678599999998,-12.766086,-20.859434,-18.063866,0.22263904,0.116216525,-4.172325e-07,-1.9888504,-0.83117205,1.3098143,1.3096383,-0.025598146,0.051155806,0.014507944,-2.2387316,-3.8964503,-0.09600401,-2.0552554,0.0011387165,0.11696895,-0.03642802,0.00018961565,-9.697216,15.257469,13.278071,0.4838618,1.5258981,0.09695358,inf,inf,inf,inf,0,1,0,1,3,2,3,2,3,1,1,1,0,0,1
304043914,304043648,42042860,60.1877325,24.832678599999998,-13.705646,-21.169586,-17.408089,0.22263904,0.116216525,-4.172325e-07,-1.7723185,-0.6211051,1.329068,1.3251108,-0.025598146,0.051155806,0.014507944,1.5709178,-1.3255125,-0.10022689,-2.0589242,0.0011492816,0.113518715,-0.03642802,0.0001931415,-9.697216,14.601692,13.946319,0.48219222,1.572904,0.09666637,inf,inf,inf,inf,0,1,0,1,3,2,3,2,3,1,1,1,0,0,1
305043911,305043648,42042860,60.1877325,24.832678599999998,-15.049597,-21.59497,-16.090107,0.22263904,0.116216525,-4.172325e-07,-1.1039169,-0.6869781,1.3320563,1.329718,-0.025598146,0.051155806,0.014507944,-1.026594,-2.0862687,2.451036,-2.0210795,0.0011713897,0.15263014,-0.03642802,0.00019946268,-9.697216,13.2837105,15.339869,0.48329943,1.6705787,0.09690976,inf,inf,inf,inf,0,1,0,1,3,2,3,2,3,1,1,1,0,0,1
305543917,305543648,42042860,60.1877325,24.832678599999998,-15.584252,-21.773138,-15.435877,0.22263904,0.116216525,-4.172325e-07,-0.8988831,-0.69183236,1.3297249,1.3282028,-0.025598146,0.051155806,0.014507944,-0.34807712,0.3545642,0.19801018,-2.0109658,0.0011831834,0.16290401,-0.03642802,0.00020286304,-9.697216,12.62948,16.07179,0.48166808,1.7178317,0.096879445,inf,inf,inf,inf,0,1,0,1,3,2,3,2,3,1,1,1,0,0,1
306043909,306043648,42042860,60.1877325,24.832678599999998,-15.955586,-22.022245,-14.766551,0.22263904,0.116216525,-4.172325e-07,-0.7112402,-0.6259399,1.3023854,1.3013428,-0.025598146,0.051155806,0.014507944,-2.1120236,-0.45614812,-1.4437133,-2.0233665,0.0011953047,0.15077697,-0.03642802,0.00020616407,-9.697216,11.960155,16.823984,0.48016068,1.7654489,0.09689989,inf,inf,inf,inf,0,1,0,1,3,2,3,2,3,1,1,1,0,0,1
306543940,306543648,42042860,60.1877325,24.832678599999998,-16.26927,-22.260996,-14.120868,0.22263904,0.116216525,-4.172325e-07,-0.5576545,-0.59016395,1.2636032,1.2629086,-0.025598146,0.051155806,0.014507944,-1.6023481,-3.7914257,-2.102384,-2.0201712,0.0012077811,0.15439874,-0.03642802,0.00020944676,-9.697216,11.314471,17.598013,0.47873408,1.8141217,0.09688242,inf,inf,inf,inf,0,1,0,1,3,2,3,2,3,1,1,1,0,0,1
307043919,307043648,42042860,60.1877325,24.832678599999998,-16.507963,-22.517948,-13.495981,0.22263904,0.116216525,-4.172325e-07,-0.41640028,-0.62261295,1.232258,1.231816,-0.025598146,0.051155806,0.014507944,1.8171695,-2.909476,2.337717,-2.0608525,0.0012207482,0.114101835,-0.03642802,0.00021266722,-9.697216,10.689585,18.39416,0.48186493,1.8629907,0.09733838,inf,inf,inf,inf,0,1,0,1,3,2,3,2,3,1,1,1,0,0,1
307543924,307543648,42042860,60.1877325,24.832678599999998,-10.563395,-10.4288225,-8.935453,5.966798,12.206481,3.9108057,0.45872968,0.34263816,1.3758484,1.3754516,0.7765232,0.9350506,0.3003918,5.2958703,7.7823653,0.50111467,-2.0675323,0.0012344896,0.10775557,-0.03642802,0.00021570204,-9.697216,10.039863,1.8390803,1.4523454,0.30026394,0.31825063,inf,inf,inf,inf,1,1,1,1,4,3,4,3,3,1,1,1,0,0,0
308543931,308543647,42042860,60.1877325,24.832678599999998,-9.711711,-10.031731,-7.8565736,5.966798,12.206481,3.9108057,1.0583293,0.001719162,0.5628987,0.5429774,0.7765232,0.9350506,0.3003918,4.1944633,-2.8171139,-4.872406,-2.001093,0.0011828529,0.18584074,-0.03642802,0.0001869436,-9.697216,8.960982,0.7446438,0.55648404,0.14804122,0.13156435,inf,inf,inf,inf,1,1,1,1,4,3,4,3,3,1,1,1,0,0,0
309043923,309043648,42042860,60.1877325,24.832678599999998,-8.862339,-10.281201,-7.9619946,5.966798,12.206481,3.9108057,2.406116,-1.1689752,-1.0015311,-1.0154759,0.7765232,0.9350506,0.3003918,2.059249,-6.94161,-0.7782722,-1.9599326,0.0010655392,0.22157994,-0.03642802,0.00015516247,-9.697216,9.066403,0.62732804,0.46850514,0.18180011,0.119518764,inf,inf,inf,inf,1,1,1,1,4,3,4,3,3,1,1,1,0,0,0
309543930,309543647,42042860,60.1877325,24.832678599999998,-7.5861597,-11.03985,-8.697268,5.966798,12.206481,3.9108057,3.0642288,-2.219761,-2.1905715,-2.1482677,0.7765232,0.9350506,0.3003918,-0.35554847,-7.601603,0.2856892,-1.9238275,0.0008798098,0.23975451,-0.03642802,0.0001224078,-9.697216,9.801677,0.55820346,0.41733432,0.20826535,0.11477201,inf,inf,inf,inf,1,1,1,1,4,3,4,3,3,1,1,1,0,0,0
310043923,310043648,42042860,60.1877325,24.832678599999998,-6.271769,-12.198673,-9.804036,5.966798,12.206481,3.9108057,2.6244056,-2.384617,-2.8200924,-2.6482532,0.7765232,0.9350506,0.3003918,0.34040466,-6.8173237,-1.1788601,-1.9624095,0.0007234104,0.18142489,-0.03642802,8.831527e-05,-9.697216,10.908445,0.5105111,0.385944,0.18760648,0.10661999,inf,inf,inf,inf,1,1,1,1,4,3,4,3,3,1,1,1,0,0,0
310543928,310543648,42042860,60.1877325,24.832678599999998,-5.1085396,-13.334399,-10.906619,5.966798,12.206481,3.9108057,1.8395103,-1.9728321,-2.64373,-2.3393738,0.7765232,0.9350506,0.3003918,-2.8540325,-1.7891232,1.08302,-1.9784507,0.00069828297,0.1689877,-0.03642802,6.976932e-05,-9.697216,12.011028,0.47615984,0.36222407,0.16960071,0.099324,inf,inf,inf,inf,1,1,1,1,4,3,4,3,3,1,1,1,0,0,0
311043923,311043647,42042860,60.1877325,24.832678599999998,-4.074121,-14.274414,-11.737371,5.966798,12.206481,3.9108057,1.2718079,-1.4493146,-1.3462316,-1.0666902,0.7765232,0.9350506,0.3003918,-6.24889,0.90793294,3.6254292,-1.9935086,0.0006941173,0.15888074,-0.03642802,5.929955e-05,-9.697216,12.841781,0.45186222,0.34585115,0.16090369,0.09475209,inf,inf,inf,inf,1,1,1,1,4,3,4,3,3,1,1,1,0,0,0
312043927,312043648,42042860,60.1877325,24.832678599999998,-2.8415287,-15.194065,-11.668749,5.966798,12.206481,3.9108057,0.36819685,-0.32045907,1.2253125,1.2714243,0.7765232,0.9350506,0.3003918,-3.3197289,1.7527912,0.78696144,-1.9614664,0.0006883358,0.19328415,-0.03642802,6.080971e-05,-9.697216,12.773158,0.4972786,0.35517493,0.19771735,0.09671692,inf,inf,inf,inf,1,1,1,1,4,3,4,3,3,1,1,1,0,0,0
312543931,312543648,42042860,60.1877325,24.832678599999998,-2.7227662,-15.25071,-11.132697,5.966798,12.206481,3.9108057,0.18121324,0.038223904,1.092206,1.1044618,0.7765232,0.9350506,0.3003918,2.9337876,-2.2486238,2.492327,-1.9447157,0.0006906966,0.20991313,-0.03642802,6.476401e-05,-9.697216,12.237106,0.5597096,0.36826232,0.23436834,0.09893898,inf,inf,inf,inf,1,1,1,1,4,3,4,3,3,1,1,1,0,0,1
313043924,313043648,42042860,60.1877325,24.832678599999998,-2.6575353,-15.207843,-10.574293,5.966798,12.206481,3.9108057,0.15078577,0.073755585,1.2223134,1.211853,0.7765232,0.9350506,0.3003918,0.049497955,-3.1878896,-3.1388159,-1.9204038,0.0006929568,0.23277265,-0.03642802,6.882619e-05,-9.697216,11.678702,0.6443762,0.38235784,0.2671425,0.100451775,inf,inf,inf,inf,1,1,1,1,4,3,4,3,3,1,1,1,0,0,1
313543929,313543648,42042860,60.1877325,24.832678599999998,-2.614275,-15.1959,-10.041305,5.966798,12.206481,3.9108057,0.086279035,-0.006750528,1.2159092,1.1652355,0.7765232,0.9350506,0.3003918,-0.07627898,4.1112432,-2.1664863,-1.9167207,0.00069539686,0.23575687,-0.03642802,7.295678e-05,-9.697216,11.145714,0.750723,0.39913982,0.29980284,0.10172766,inf,inf,inf,inf,1,1,1,1,4,3,4,3,3,1,1,1,0,0,1
314043923,314043648,42042860,60.1877325,24.832678599999998,-2.6308415,-15.192813,-9.513447,5.966798,12.206481,3.9108057,-0.05056867,0.07418017,1.1995108,1.1041846,0.7765232,0.9350506,0.3003918,-1.3017188,-0.90253174,2.0622861,-1.9230812,0.00069822115,0.22957864,-0.03642802,7.7127464e-05,-9.697216,10.617856,0.8778757,0.41306326,0.33390597,0.10241723,inf,inf,inf,inf,1,1,1,1,4,3,4,3,3,1,1,1,0,0,1
314543933,314543648,42042860,60.1877325,24.832678599999998,-2.6600242,-15.158076,-9.028534,5.966798,12.206481,3.9108057,-0.030050356,0.083095394,1.1471967,1.0159576,0.7765232,0.9350506,0.3003918,0.20527644,-1.4444284,-5.098399,-1.8978454,0.00070139626,0.25401288,-0.03642802,8.1316146e-05,-9.697216,10.132943,1.0255796,0.4258487,0.3699631,0.10264322,inf,inf,inf,inf,1,1,1,1,4,3,4,3,3,1,1,1,0,0,1
315043928,315043648,42042860,60.1877325,24.832678599999998,-2.7074792,-15.122874,-8.57509,5.966798,12.206481,3.9108057,-0.093695186,0.05764381,1.1425647,0.9745833,0.7765232,0.9350506,0.3003918,-0.009614943,-0.5284728,-0.106702186,-1.9160697,0.00070484355,0.23725985,-0.03642802,8.5535656e-05,-9.697216,9.6795,1.1929214,0.4405401,0.4058546,0.10298975,inf,inf,inf,inf,1,1,1,1,4,3,4,3,3,1,1,1,0,0,1
315543931,315543648,42042860,60.1877325,24.832678599999998,-2.7621639,-15.1193285,-8.14811,5.966798,12.206481,3.9108057,-0.1347771,0.022434961,1.1338676,0.92784053,0.7765232,0.9350506,0.3003918,0.09955808,-1.8305138,-2.6142957,-1.9826318,0.0007085504,0.17003186,-0.03642802,8.975731e-05,-9.697216,9.25252,1.3790205,0.45033756,0.4420786,0.10261313,inf,inf,inf,inf,1,1,1,1,4,3,4,3,3,1,1,1,0,0,1
316043928,316043648,42042860,60.1877325,24.832678599999998,-2.8545382,-15.082933,-7.7266517,5.966798,12.206481,3.9108057,-0.20232081,0.15979104,1.1770078,0.9343624,0.7765232,0.9350506,0.3003918,-2.413561,3.2136064,0.43176246,-1.980639,0.00071264745,0.17223984,-0.03642802,9.398733e-05,-9.697216,8.83106,1.583627,0.45833492,0.4798408,0.10212785,inf,inf,inf,inf,1,1,1,1,4,3,4,3,3,1,1,1,0,0,1
316543964,316543648,42042860,60.1877325,24.832678599999998,-2.9637072,-15.032234,-7.3039794,5.966798,12.206481,3.9108057,-0.28495228,0.1286934,1.2014953,0.92247504,0.7765232,0.9350506,0.3003918,4.8598905,5.623713,-1.6179117,-1.9597865,0.00071701134,0.19258052,-0.03642802,9.821659e-05,-9.697216,8.408388,1.8065557,0.46459857,0.7708174,0.10141406,inf,inf,inf,inf,0,1,0,1,4,3,4,3,3,1,1,1,0,0,1
317043925,317043648,42042860,60.1877325,24.832678599999998,-3.2109094,-14.948389,-6.898175,5.966798,12.206481,3.9108057,-0.7428339,0.36143258,1.2326484,0.91224146,0.7765232,0.9350506,0.3003918,-0.43013954,-0.6588132,-0.8406343,-1.9434669,0.0007217833,0.20819381,-0.03642802,0.0001024643,-9.697216,8.0025835,2.047441,0.47353062,0.84441096,0.10136135,inf,inf,inf,inf,0,1,0,1,4,3,4,3,3,1,1,1,0,0,1
317543928,317543648,42042860,60.1877325,24.832678599999998,-3.6536906,-14.783424,-6.4882736,5.966798,12.206481,3.9108057,-0.9075967,0.3934035,1.2862524,0.92458975,0.7765232,0.9350506,0.3003918,-0.63705873,0.14202689,-1.5220212,-1.9488939,0.0007270029,0.2035041,-0.03642802,0.00010672056,-9.697216,7.592683,2.3069146,0.4769712,0.89197177,0.10084499,inf,inf,inf,inf,0,1,0,1,4,3,4,3,3,1,1,1,0,0,1
318043967,318043648,42042860,60.1877325,24.832678599999998,-4.054699,-14.635798,-6.0666027,5.966798,12.206481,3.9108057,-0.6995494,0.29090363,1.3526107,0.9547524,0.7765232,0.9350506,0.3003918,0.76409566,1.9039143,0.010785271,-1.9636182,0.00073243625,0.1890204,-0.03642802,0.000110833156,-9.697216,7.171012,2.5833242,0.4791609,1.0738174,0.09983415,inf,inf,inf,inf,0,1,0,1,4,3,4,3,3,1,1,1,0,0,1
318543935,318543648,42042860,60.1877325,24.832678599999998,-4.355759,-14.560487,-5.5367427,5.966798,12.206481,3.9108057,-0.5634677,0.101520784,1.4402431,1.0543402,0.7765232,0.9350506,0.3003918,-0.9620242,0.9227315,0.43902305,-1.9607486,0.00073820446,0.19227329,-0.03642802,0.00011491392,-9.697216,6.6411514,2.8760781,0.48484045,1.1483454,0.09942369,inf,inf,inf,inf,0,1,0,1,4,3,4,3,3,1,1,1,0,0,1
319043944,319043648,42042860,60.1877325,24.832678599999998,-4.5634522,-14.545906,-5.0434766,5.966798,12.206481,3.9108057,-0.35310987,0.119890325,1.441198,1.0432942,0.7765232,0.9350506,0.3003918,-1.068338,-3.293748,0.24902505,-2.006157,0.00074433134,0.1471352,-0.03642802,0.00011894373,-9.697216,6.1478853,3.1851974,0.48511264,1.4326729,0.09860129,inf,inf,inf,inf,0,1,0,1,4,3,4,3,3,1,1,1,0,0,1
319543929,319543648,42042860,60.1877325,24.832678599999998,-4.698083,-14.50622,-4.4900284,5.966798,12.206481,3.9108057,-0.2391706,0.13040343,1.35287,1.0048839,0.7765232,0.9350506,0.3003918,3.007806,-1.216796,1.1653953,-2.02243,0.0007508542,0.13099048,-0.03642802,0.00012292257,-9.697216,5.5944376,3.5118678,0.4846718,1.5061082,0.09789644,inf,inf,inf,inf,0,1,0,1,4,3,4,3,3,1,1,1,0,0,1
320043923,320043648,42042860,60.1877325,24.832678599999998,-4.855343,-14.498244,-3.92766,5.966798,12.206481,3.9108057,-0.4728697,0.06964576,1.2818561,0.9945373,0.7765232,0.9350506,0.3003918,-1.4973501,2.0526814,0.1661202,-2.0004282,0.0007576079,0.15205824,-0.03642802,0.00012692726,-9.697216,5.032069,3.85639,0.48836046,1.5907042,0.09784002,inf,inf,inf,inf,0,1,0,1,4,3,4,3,3,1,1,1,0,0,1
320543930,320543648,42042860,60.1877325,24.832678599999998,-5.1538734,-14.469157,-3.3828351,5.966798,12.206481,3.9108057,-0.6479804,0.23953371,1.2861394,1.0391862,0.7765232,0.9350506,0.3003918,-4.735066,1.7761333,4.436336,-1.95444,0.0007648414,0.19711195,-0.03642802,0.00013093418,-9.697216,4.487244,4.21874,0.4870369,1.7792826,0.09742874,inf,inf,inf,inf,0,1,0,1,4,3,4,3,3,1,1,1,0,0,1
321043923,321043647,42042860,60.1877325,24.832678599999998,-5.454053,-14.413497,-2.8489664,5.966798,12.206481,3.9108057,-0.31228396,0.20506892,1.2484609,1.0151345,0.7765232,0.9350506,0.3003918,3.3717077,0.7317737,4.7068877,-1.8658686,0.0007724302,0.28658447,-0.03642802,0.00013478761,-9.697216,3.9533753,4.5981565,0.48545712,1.95789,0.096952885,inf,inf,inf,inf,0,1,0,1,4,3,4,3,3,1,1,1,0,0,1
321543966,321543647,42042860,60.1877325,24.832678599999998,-5.577795,-14.327359,-2.3735726,5.966798,12.206481,3.9108057,-0.088144995,0.23794594,1.1778429,0.9306712,0.7765232,0.9350506,0.3003918,0.74599314,-10.486312,-1.1533076,-1.8716068,0.0007805004,0.2831795,-0.03642802,0.00013846744,-9.697216,3.4779816,4.9948626,0.48365137,2.0464015,0.096546724,inf,inf,inf,inf,0,1,0,1,4,3,4,3,3,1,1,1,0,0,1
322043923,322043647,42042860,60.1877325,24.832678599999998,-5.595807,-14.264786,-1.893114,5.966798,12.206481,3.9108057,0.09932741,0.12604833,1.1601297,0.92754585,0.7765232,0.9350506,0.3003918,-2.1078205,-1.1072108,-0.70437515,-1.9298621,0.0007887253,0.22489147,-0.03642802,0.0001421733,-9.697216,2.9975228,5.409474,0.48634014,2.3059278,0.09672013,inf,inf,inf,inf,0,1,0,1,4,3,4,3,3,1,1,1,0,0,1
322543928,322543648,42042860,60.1877325,24.832678599999998,-5.493085,-14.162343,-1.4507554,5.966798,12.206481,3.9108057,0.44205984,0.4889719,1.0202042,0.78074807,0.7765232,0.9350506,0.3003918,-2.0231318,1.9076504,4.56837,-1.9567486,0.0007975567,0.19975494,-0.03642802,0.00014577081,-9.697216,2.5551643,5.842102,0.48433253,2.6099706,0.09657774,inf,inf,inf,inf,0,1,0,1,4,3,4,3,3,1,1,1,0,0,1
323043964,323043650,42042860,60.1877325,24.832678599999998,-5.2573857,-13.899386,-1.1746187,5.966798,12.206481,3.9108057,0.5962379,0.7159371,0.67759264,0.42712766,0.7765232,0.9350506,0.3003918,-0.934965,0.7624573,-1.5521466,-2.0157585,0.0008065973,0.14101472,-0.03642802,0.00014935413,-9.697216,2.2790277,6.2949014,0.4823499,2.7812548,0.09655482,inf,inf,inf,inf,0,1,0,1,4,3,4,3,3,1,1,1,0,0,1
323543983,323543648,42042860,60.1877325,24.832678599999998,-4.959279,-13.545389,-0.89921904,5.966798,12.206481,3.9108057,0.7824114,0.8865992,0.5045483,0.3096117,0.7765232,0.9350506,0.3003918,2.070615,-5.149206,-1.6970227,-2.0107908,0.0008159404,0.14584021,-0.03642802,0.00015289332,-9.697216,2.003628,6.7678423,0.485007,3.0149903,0.09700314,inf,inf,inf,inf,0,1,0,1,4,3,4,3,3,1,1,1,0,0,1
324043925,324043647,42042860,60.1877325,24.832678599999998,-4.5611806,-13.087604,-0.75724393,5.966798,12.206481,3.9108057,0.9208235,1.0635905,0.34088233,0.20425616,0.7765232,0.9350506,0.3003918,0.044122167,0.35696012,-2.4512947,-1.9827,0.00082559796,0.17389241,-0.03642802,0.00015635564,-9.697216,1.8616529,7.2606187,0.4831525,3.2483866,0.09709223,inf,inf,inf,inf,0,1,0,1,4,3,4,3,3,1,1,1,0,0,1
324543930,324543647,42042860,60.1877325,24.832678599999998,-4.1450906,-12.549839,-0.5886931,5.966798,12.206481,3.9108057,0.96810025,1.1912333,0.29024976,0.20792694,0.7765232,0.9350506,0.3003918,-0.34270218,1.649833,-1.7619573,-1.9480685,0.00083559233,0.20864694,-0.03642802,0.0001597613,-9.697216,1.6931021,7.772421,0.4813963,3.4375374,0.097052775,inf,inf,inf,inf,0,1,0,1,4,3,4,3,3,1,1,1,0,0,1
325043924,325043648,42042860,60.1877325,24.832678599999998,-3.7050135,-11.958546,-0.41710386,5.966798,12.206481,3.9108057,1.0528526,1.241104,0.35368276,0.30865747,0.7765232,0.9350506,0.3003918,-0.4226067,-0.015295,-0.94363785,-1.9574518,0.00084597006,0.19910823,-0.03642802,0.0001630754,-9.697216,1.5215129,8.302645,0.48429596,3.5848536,0.09748435,inf,inf,inf,inf,0,1,0,1,4,3,4,3,3,1,1,1,0,0,1
325543929,325543648,42042860,60.1877325,24.832678599999998,-3.2179706,-11.341937,-0.23134226,5.966798,12.206481,3.9108057,1.0653112,1.3785163,0.32807234,0.30477992,0.7765232,0.9350506,0.3003918,0.89576405,1.278968,-0.15305075,-1.9787897,0.0008566906,0.17763077,-0.03642802,0.00016633442,-9.697216,1.3357513,8.851053,0.48273692,3.8390195,0.09739907,inf,inf,inf,inf,0,1,0,1,4,3,4,3,3,1,1,1,0,0,1
326043936,326043648,42042860,60.1877325,24.832678599999998,-2.760036,-10.683291,-0.06095236,5.966798,12.206481,3.9108057,0.97659993,1.4217023,0.2951739,0.283488,0.7765232,0.9350506,0.3003918,0.62564474,-2.301502,0.7939076,-1.9801385,0.00086780865,0.17604193,-0.03642802,0.00016953959,-9.697216,1.1653613,9.418323,0.4812472,4.029879,0.09733182,inf,inf,inf,inf,0,1,0,1,4,3,4,3,3,1,1,1,0,0,1
326543963,326543648,42042860,60.1877325,24.832678599999998,-2.3438866,-10.083396,0.09464717,5.966798,12.206481,3.9108057,0.70164675,0.9617985,0.30610204,0.3007432,0.7765232,0.9350506,0.3003918,-0.24603373,-1.2687783,2.6892445,-1.9755853,0.00087862014,0.18054831,-0.03642802,0.0001726916,-9.697216,1.0097618,10.001685,0.4797763,4.2677517,0.09683306,inf,inf,inf,inf,0,1,0,1,4,3,4,3,3,1,1,1,0,0,1
327043930,327043648,42042860,60.1877325,24.832678599999998,-2.0111668,-9.785907,0.20864296,5.966798,12.206481,3.9108057,0.49564204,0.48195267,0.15205589,0.14985174,0.7765232,0.9350506,0.3003918,-0.49202392,-2.1316562,-0.5879322,-1.9737124,0.0008896231,0.18454346,-0.03642802,0.00017582969,-9.697216,0.895766,10.600388,0.4827296,4.770383,0.096859716,inf,inf,inf,inf,0,1,0,1,4,3,4,3,3,1,1,1,0,0,1
327543929,327543647,42042860,60.1877325,24.832678599999998,-1.7827771,-9.704356,0.3311092,5.966798,12.206481,3.9108057,0.2732869,0.14662404,0.25680962,0.2548922,0.7765232,0.9350506,0.3003918,-3.5459569,-5.725523,0.6496133,-1.981922,0.0009011455,0.17382123,-0.03642802,0.00017894097,-9.697216,0.7732998,11.215471,0.48110718,5.13041,0.096752405,inf,inf,inf,inf,0,1,0,1,4,3,4,3,3,1,1,1,0,0,1
328043961,328043647,42042860,60.1877325,24.832678599999998,-1.6774453,-9.786846,0.40993032,5.966798,12.206481,3.9108057,0.0931269,-0.1233702,0.0816399,0.0778335,0.7765232,0.9350506,0.3003918,1.4126158,1.032936,-1.6205475,-1.9730827,0.0009132377,0.1845516,-0.03642802,0.00018202698,-9.697216,0.69447863,11.847428,0.4795063,5.512477,0.09676979,inf,inf,inf,inf,0,1,0,1,4,3,4,3,3,1,1,1,0,0,1
328543930,328543647,42042860,60.1877325,24.832678599999998,-1.7023711,-9.977008,0.4257578,5.966798,12.206481,3.9108057,-0.09915171,-0.22588994,-0.01346429,-0.019613689,0.7765232,0.9350506,0.3003918,0.7597916,2.760704,-0.28768805,-2.007102,0.0009258049,0.14782433,-0.03642802,0.00018504384,-9.697216,0.6786512,12.497025,0.4824737,5.9081507,0.09729798,inf,inf,inf,inf,0,1,0,1,4,3,4,3,3,1,1,1,0,0,1
329043940,329043648,42042860,60.1877325,24.832678599999998,-1.8145686,-10.19592,0.4242812,5.966798,12.206481,3.9108057,-0.13944335,-0.18962692,-0.021586277,-0.028173758,0.7765232,0.9350506,0.3003918,0.10396621,-0.47232705,-1.7264577,-1.982961,0.00093894824,0.17300762,-0.03642802,0.00018796939,-9.697216,0.68012774,13.165069,0.4810106,6.4136558,0.09722243,inf,inf,inf,inf,0,1,0,1,4,3,4,3,3,1,1,1,0,0,1
329543932,329543648,42042860,60.1877325,24.832678599999998,-1.9450738,-10.355733,0.38880402,5.966798,12.206481,3.9108057,-0.10361648,-0.23881263,-0.03652696,-0.041729547,0.7765232,0.9350506,0.3003918,-0.11039889,-0.1883963,0.64173245,-1.9853545,0.0009526154,0.17222945,-0.03642802,0.0001907332,-9.697216,0.71560496,13.851897,0.4796307,6.7333794,0.09706652,inf,inf,inf,inf,0,1,0,1,4,3,4,3,3,1,1,1,0,0,1
330043931,330043648,42042860,60.1877325,24.832678599999998,-1.9500258,-10.563399,0.3451766,5.966798,12.206481,3.9108057,0.14453867,-0.52848786,-0.17403775,-0.17697582,0.7765232,0.9350506,0.3003918,0.40416476,-2.4981625,1.3223453,-1.99758,0.00096647424,0.16197845,-0.03642802,0.0001934511,-9.697216,0.7592324,14.557295,0.48281005,7.207025,0.09759889,inf,inf,inf,inf,0,1,0,1,4,3,4,3,3,1,1,1,0,0,1
330543930,330543647,42042860,60.1877325,24.832678599999998,-1.8577557,-10.889102,0.2683484,5.966798,12.206481,3.9108057,0.30512688,-0.651797,-0.10018079,-0.10201056,0.7765232,0.9350506,0.3003918,1.9988797,-1.7221159,-1.0820334,-1.9892606,0.0009807759,0.17202252,-0.03642802,0.00019610865,-9.697216,0.8360606,15.282603,0.48153695,7.7280235,0.09759071,inf,inf,inf,inf,0,1,0,1,4,3,4,3,3,1,1,1,0,0,1
331043927,331043648,42042860,60.1877325,24.832678599999998,-1.6187896,-11.264626,0.2044686,5.966798,12.206481,3.9108057,0.7046199,-0.716095,-0.14652427,-0.14972498,0.7765232,0.9350506,0.3003918,1.3423879,2.2238727,-0.5484218,-2.0027738,0.0009954638,0.16006829,-0.03642802,0.00019860298,-9.697216,0.8999404,16.027658,0.4803115,8.369086,0.09780683,inf,inf,inf,inf,0,1,0,1,4,3,4,3,3,1,1,1,0,0,1
331543999,331543648,42042860,60.1877325,24.832678599999998,-1.2503879,-11.656387,0.15113345,5.966798,12.206481,3.9108057,0.751368,-0.5747282,-0.058270838,-0.0628797,0.7765232,0.9350506,0.3003918,0.295742,1.1211272,0.6912043,-1.983351,0.001010447,0.17930904,-0.03642802,0.00020116745,-9.697216,0.95327556,16.793657,0.47914356,9.061197,0.09747877,inf,inf,inf,inf,0,1,0,1,4,3,4,3,3,1,1,1,0,0,1
332043927,332043648,42042860,60.1877325,24.832678599999998,-0.88619316,-11.97975,0.11693472,5.966798,12.206481,3.9108057,0.9312332,-0.53215593,-0.14238937,-0.14539506,0.7765232,0.9350506,0.3003918,1.8073734,-0.049387757,1.6212275,-1.9609543,0.0010257658,0.201888,-0.03642802,0.00020368723,-9.697216,0.98747426,17.579727,0.48248637,9.801885,0.097788,inf,inf,inf,inf,0,1,0,1,4,3,4,3,3,1,1,1,0,0,1
332543941,332543648,42042860,60.1877325,24.832678599999998,-0.46483976,-12.266061,0.038810637,5.966798,12.206481,3.9108057,0.9220183,-0.34951162,-0.15313093,-0.15491015,0.7765232,0.9350506,0.3003918,0.27349207,1.2389767,-0.4802147,-1.9830209,0.0010413683,0.18005005,-0.03642802,0.00020617277,-9.697216,1.0655984,18.386585,0.481304,10.475981,0.097556055,inf,inf,inf,inf,0,1,0,1,4,3,4,3,3,1,1,1,0,0,1
333044070,333043648,42042860,60.1877325,24.832678599999998,-0.058863964,-12.582134,-0.0078944545,5.966798,12.206481,3.9108057,0.89876324,-0.23698135,-0.05146604,-0.052297883,0.7765232,0.9350506,0.3003918,1.0036057,0.6405279,-2.2471585,-1.9804598,0.0010545935,0.18311219,-0.03642802,0.00020780772,-9.697216,1.1123034,19.192926,0.480062,1.9251578,0.09720723,inf,inf,inf,inf,0,1,0,1,4,3,4,3,3,1,1,1,0,0,1
333544041,333543647,42042860,60.1877325,24.832678599999998,0.36611772,-12.806252,-0.01702385,5.966798,12.206481,3.9108057,0.938898,-0.5852958,-0.040218987,-0.040655084,0.7765232,0.9350506,0.3003918,0.61105126,1.4123784,-2.269696,-1.9976107,0.0010672734,0.16081287,-0.03642802,0.00020942334,-9.697216,1.1214328,20.016027,0.48331803,1.9661777,0.097680464,inf,inf,inf,inf,0,1,0,1,4,3,4,3,3,1,1,1,0,0,1
334043924,334043647,42042860,60.1877325,24.832678599999998,0.82263345,-12.918521,-0.089473546,5.966798,12.206481,3.9108057,0.79140884,-0.6345009,-0.1718659,-0.17214608,0.7765232,0.9350506,0.3003918,-3.3509915,-1.9697223,1.5970489,-1.9412974,0.0010809341,0.21704584,-0.03642802,0.00021169646,-9.697216,1.1938825,20.87052,0.4820814,2.0091865,0.09758215,inf,inf,inf,inf,0,1,0,1,4,3,4,3,3,1,1,1,0,0,1
334544047,334543647,42042860,60.1877325,24.832678599999998,1.2068279,-13.201441,-0.13437656,5.966798,12.206481,3.9108057,0.796336,-0.7797701,-0.005915665,-0.0060869837,0.7765232,0.9350506,0.3003918,-0.6739926,-0.757838,2.7644725,-1.9185134,0.0010938072,0.23918243,-0.03642802,0.00021311356,-9.697216,1.2387855,21.723534,0.4808226,2.0473988,0.09744213,inf,inf,inf,inf,0,1,0,1,4,3,4,3,3,1,1,1,0,0,1
335043922,335043649,42042860,60.1877325,24.832678599999998,1.5710284,-13.503312,-0.19404401,5.966798,12.206481,3.9108057,0.78486514,-1.0025114,-0.19450028,-0.19470792,0.7765232,0.9350506,0.3003918,0.40799138,-0.5862486,1.3120482,-1.9362766,0.0011076939,0.2216872,-0.03642802,0.00021510052,-9.697216,1.298453,22.607529,0.48410827,2.090035,0.09791217,inf,inf,inf,inf,0,1,0,1,4,3,4,3,3,1,1,1,0,0,1
335543938,335543648,42042860,60.1877325,24.832678599999998,1.8946401,-13.961601,-0.29638508,5.966798,12.206481,3.9108057,0.80433387,-1.2290059,-0.36040908,-0.36064744,0.7765232,0.9350506,0.3003918,-0.7416348,-5.649804,1.0384394,-1.9268209,0.0011216992,0.23107974,-0.03642802,0.00021699173,-9.697216,1.400794,23.508022,0.4828757,2.1317337,0.09799359,inf,inf,inf,inf,0,1,0,1,4,3,4,3,3,1,1,1,0,0,1
336043921,336043648,42042860,60.1877325,24.832678599999998,2.287837,-14.5706005,-0.57680494,5.966798,12.206481,3.9108057,0.91923785,-1.3058943,-0.5345762,-0.5346637,0.7765232,0.9350506,0.3003918,0.14208831,-0.5052774,1.9212981,-1.9010671,0.0011369783,0.25682694,-0.03642802,0.0002193873,-9.697216,1.6812139,24.443338,0.48166674,2.182129,0.09802523,inf,inf,inf,inf,0,1,0,1,4,3,4,3,3,1,1,1,0,0,1
336543917,336543648,42042860,60.1877325,24.832678599999998,2.5392473,-15.298065,-0.6610234,5.966798,12.206481,3.9108057,1.086011,-1.2395647,-0.1743928,-0.17441702,0.7765232,0.9350506,0.3003918,-1.0397316,-2.7247195,0.68328065,-1.8154987,0.0011521352,0.34238026,-0.03642802,0.00022124787,-9.697216,1.7654324,25.388882,0.48500335,2.2206633,0.09823072,inf,inf,inf,inf,0,1,0,1,4,3,4,3,3,1,1,1,0,0,1
337044047,337043648,42042860,60.1877325,24.832678599999998,2.8840513,-15.983669,-0.7296515,5.966798,12.206481,3.9108057,1.2431192,-1.2272248,-0.00196545,-0.002034662,0.7765232,0.9350506,0.3003918,-2.556606,1.396403,-1.2394974,-1.7467518,0.0011676805,0.4113059,-0.03642802,0.00022303534,-9.697216,1.8340604,26.354364,0.48372525,2.2690477,0.09800781,inf,inf,inf,inf,0,1,0,1,4,3,4,3,3,1,1,1,0,0,1
337544043,337543647,42042860,60.1877325,24.832678599999998,3.2151515,-16.60422,-0.723437,5.966798,12.206481,3.9108057,1.3559569,-1.2857511,0.18243201,0.18214373,0.7765232,0.9350506,0.3003918,4.4921403,-1.4180806,1.8774418,-1.7652646,0.0011823528,0.39268392,-0.03642802,0.0002242273,-9.697216,1.827846,27.322514,0.4824195,2.3105116,0.09784915,inf,inf,inf,inf,0,1,0,1,4,3,4,3,3,1,1,1,0,0,1
338043950,338043648,42042860,60.1877325,24.832678599999998,3.2676978,-17.153254,-0.82524073,5.966798,12.206481,3.9108057,0.49200088,-1.1740522,-0.22551824,-0.22619364,0.7765232,0.9350506,0.3003918,-2.483346,1.6270916,0.2766189,-1.635904,0.0011985372,0.52678037,-0.03642802,0.00022600542,-9.697216,1.9296497,28.329556,0.4810939,2.350168,0.097304545,inf,inf,inf,inf,0,1,0,1,4,3,4,3,3,1,1,1,0,0,1
338543921,338543648,42042860,60.1877325,24.832678599999998,2.7955804,-17.359457,-0.91237307,5.966798,12.206481,3.9108057,0.62703425,-1.0586745,-0.20477544,-0.2062209,0.7765232,0.9350506,0.3003918,5.534579,-1.408529,0.29916522,-1.662422,0.001215442,0.4739201,-0.03642802,0.0002277413,-9.697216,2.016782,29.362846,0.48419425,2.3845134,0.097557336,inf,inf,inf,inf,0,1,0,1,4,3,4,3,3,1,1,1,0,0,1
339543920,339543649,42042860,60.1877325,24.832678599999998,2.5422823,-18.623661,-1.1190158,5.966798,12.206481,3.9108057,0.4558655,-1.1153308,-0.21865322,-0.21931933,0.7765232,0.9350506,0.3003918,0.46145567,-0.40900522,3.9250824,-1.6598296,0.0012484583,0.4752052,-0.03642802,0.00023155141,-9.697216,2.223425,31.471172,0.48128134,2.4811676,0.09704202,inf,inf,inf,inf,0,1,0,1,4,3,4,3,3,1,1,1,0,0,1
340044042,340043647,42042860,60.1877325,24.832678599999998,2.2667766,-19.25168,-1.2328032,5.966798,12.206481,3.9108057,0.42076614,-1.1474925,-0.22104087,-0.22157529,0.7765232,0.9350506,0.3003918,0.7186942,0.30255556,1.6614199,-1.6598841,0.0012661867,0.4751598,-0.03642802,0.0002337321,-9.697216,2.337212,32.566936,0.4843556,2.5268548,0.097289614,inf,inf,inf,inf,0,1,0,1,4,3,4,3,3,1,1,1,0,0,1
340543921,340543648,42042860,60.1877325,24.832678599999998,2.037911,-19.852247,-1.3474745,5.966798,12.206481,3.9108057,0.3797892,-1.1554793,-0.23515947,-0.23558943,0.7765232,0.9350506,0.3003918,0.0027903283,0.42499852,-0.6944703,-1.6718168,0.0012827024,0.46316436,-0.03642802,0.00023526838,-9.697216,2.4518833,33.66141,0.4828634,2.5702643,0.0970856,inf,inf,inf,inf,0,1,0,1,4,3,4,3,3,1,1,1,0,0,1
341044040,341043648,42042860,60.1877325,24.832678599999998,1.8097484,-20.431606,-1.4651555,5.966798,12.206481,3.9108057,0.34836328,-1.1750427,-0.23473626,-0.23509939,0.7765232,0.9350506,0.3003918,-1.6143035,0.55569005,1.4172157,-1.6679077,0.0012981489,0.46701357,-0.03642802,0.00023622168,-9.697216,2.5695643,34.756504,0.481367,2.6112425,0.09688443,inf,inf,inf,inf,0,1,0,1,4,3,4,3,3,1,1,1,0,0,1
341544043,341543647,42042860,60.1877325,24.832678599999998,1.5947354,-21.011185,-1.5856018,5.966798,12.206481,3.9108057,0.31943282,-1.2007167,-0.23756914,-0.23786815,0.7765232,0.9350506,0.3003918,1.2361606,0.32557034,-0.0878384,-1.6680565,0.0013137107,0.46683866,-0.03642802,0.00023719565,-9.697216,2.6900108,35.871,0.48441598,2.6525517,0.097166635,inf,inf,inf,inf,0,1,0,1,4,3,4,3,3,1,1,1,0,0,1
342043920,342043647,42042860,60.1877325,24.832678599999998,1.2990819,-21.592915,-1.705205,5.966798,12.206481,3.9108057,0.27258104,-1.2247329,-0.23072705,-0.23099948,0.7765232,0.9350506,0.3003918,-0.13852455,-0.6497603,2.9848392,-1.667524,0.0013299861,0.46735454,-0.03642802,0.00023845187,-9.697216,2.809614,37.01363,0.4829105,2.69474,0.09698518,inf,inf,inf,inf,0,1,0,1,4,3,4,3,3,1,1,1,0,0,1
342544040,342543648,42042860,60.1877325,24.832678599999998,0.9385229,-22.129564,-1.8261452,5.966798,12.206481,3.9108057,0.22905499,-1.2421881,-0.2346254,-0.23490922,0.7765232,0.9350506,0.3003918,-0.20473881,-0.8732523,2.685014,-1.6676122,0.0013470452,0.46719453,-0.03642802,0.00023998827,-9.697216,2.9305542,38.18561,0.48141375,2.738078,0.09681007,inf,inf,inf,inf,0,1,0,1,4,3,4,3,3,1,1,1,0,0,1
343043944,343043647,42042860,60.1877325,24.832678599999998,0.6029273,-22.672361,-1.9451495,5.966798,12.206481,3.9108057,0.18309797,-1.2618192,-0.22341414,-0.22368485,0.7765232,0.9350506,0.3003918,-0.38769904,-0.73049,1.3872796,-1.6678469,0.0013640668,0.46693307,-0.03642802,0.00024145917,-9.697216,3.0495586,39.374973,0.47992617,2.7810903,0.09664333,inf,inf,inf,inf,0,1,0,1,4,3,4,3,3,1,1,1,0,0,1
343543922,343543649,42042860,60.1877325,24.832678599999998,0.27969283,-23.216167,-2.0615294,5.966798,12.206481,3.9108057,0.14072146,-1.2810103,-0.24629645,-0.24654505,0.7765232,0.9350506,0.3003918,0.3797809,0.5065473,-4.096647,-1.6682216,0.0013832365,0.4665092,-0.03642802,0.00024368582,-9.697216,3.1659384,40.613693,0.4829676,2.8274744,0.09695128,inf,inf,inf,inf,0,1,0,1,4,3,4,3,3,1,1,1,0,0,1
344044049,344043649,42042860,60.1877325,24.832678599999998,-0.018874649,-23.79419,-2.1821172,5.966798,12.206481,3.9108057,0.109604485,-1.2631204,-0.24190971,-0.24211133,0.7765232,0.9350506,0.3003918,-1.5626272,2.3057878,0.7394495,-1.6715308,0.0014029453,0.4631787,-0.03642802,0.0002460179,-9.697216,3.2865262,41.878395,0.4814883,2.874365,0.09679178,inf,inf,inf,inf,0,1,0,1,4,3,4,3,3,1,1,1,0,0,1
344544058,344543647,42042860,60.1877325,24.832678599999998,-0.214206,-24.40793,-2.3016627,5.966798,12.206481,3.9108057,0.06834778,-1.3221182,-0.23400138,-0.2341426,0.7765232,0.9350506,0.3003918,-1.0977361,0.8341007,2.7116842,-1.672743,0.0014202587,0.46190515,-0.03642802,0.00024733317,-9.697216,3.4060717,43.12629,0.48004484,2.9173605,0.09664214,inf,inf,inf,inf,0,1,0,1,4,3,4,3,3,1,1,1,0,0,1
345044061,345043648,42042860,60.1877325,24.832678599999998,-0.39940262,-24.96531,-2.4241533,5.966798,12.206481,3.9108057,0.047869276,-1.3508433,-0.2658819,-0.2660021,0.7765232,0.9350506,0.3003918,2.4324799,-2.2999446,-3.9276254,-1.6727744,0.0014388213,0.4617857,-0.03642802,0.00024902914,-9.697216,3.5285623,44.410477,0.48314798,2.9619732,0.09697848,inf,inf,inf,inf,0,1,0,1,4,3,4,3,3,1,1,1,0,0,1
345543917,345543647,42042860,60.1877325,24.832678599999998,-0.5770392,-25.527935,-2.556583,5.966798,12.206481,3.9108057,0.011559587,-1.3577482,-0.2663491,-0.2664498,0.7765232,0.9350506,0.3003918,-2.4235885,1.864389,2.2855546,-1.6723471,0.001458365,0.462133,-0.03642802,0.00025101705,-9.697216,3.660992,45.727627,0.48173854,3.0086892,0.09682775,inf,inf,inf,inf,0,1,0,1,4,3,4,3,3,1,1,1,0,0,1
346044044,346043647,42042860,60.1877325,24.832678599999998,-0.7860001,-26.097815,-2.6922104,5.966798,12.206481,3.9108057,-0.014895049,-1.4043497,-0.2767922,-0.27688974,0.7765232,0.9350506,0.3003918,0.88278484,0.54234064,0.96375465,-1.6733471,0.0014762755,0.46105766,-0.03642802,0.00025237544,-9.697216,3.7966194,47.040157,0.48033687,3.0527182,0.09669202,inf,inf,inf,inf,0,1,0,1,4,3,4,3,3,1,1,1,0,0,1
346543914,346543647,42042860,60.1877325,24.832678599999998,-0.9831038,-26.800797,-2.8320572,5.966798,12.206481,3.9108057,-0.063466795,-1.4298218,-0.2575302,-0.25756112,0.7765232,0.9350506,0.3003918,-3.3544474,-0.12203183,5.724437,-1.6734182,0.0014972567,0.4609771,-0.03642802,0.00025469819,-9.697216,3.9364662,48.415676,0.48346257,3.100356,0.0970305,inf,inf,inf,inf,0,1,0,1,4,3,4,3,3,1,1,1,0,0,1
347044041,347043648,42042860,60.1877325,24.832678599999998,-1.1821777,-27.46168,-2.972828,5.966798,12.206481,3.9108057,-0.091140606,-1.443997,-0.29078305,-0.29079655,0.7765232,0.9350506,0.3003918,-0.7546822,-0.6337991,-0.093504235,-1.673152,0.0015174946,0.46119717,-0.03642802,0.00025669867,-9.697216,4.077237,49.799736,0.48206493,3.1467104,0.09689771,inf,inf,inf,inf,0,1,0,1,4,3,4,3,3,1,1,1,0,0,1
347544042,347543647,42042860,60.1877325,24.832678599999998,-1.4037248,-28.125677,-3.1128638,5.966798,12.206481,3.9108057,-0.11787938,-1.4771535,-0.27247614,-0.27248967,0.7765232,0.9350506,0.3003918,-0.40120804,0.5977005,1.6544135,-1.6720265,0.0015370238,0.46235025,-0.03642802,0.00025840898,-9.697216,4.2172728,51.192963,0.48067445,3.1923633,0.09676259,inf,inf,inf,inf,0,1,0,1,4,3,4,3,3,1,1,1,0,0,1
348044077,348043648,42042860,60.1877325,24.832678599999998,-1.6820908,-28.687063,-3.2503364,5.966798,12.206481,3.9108057,-0.15040092,-1.4923378,-0.27281675,-0.27286118,0.7765232,0.9350506,0.3003918,0.3887505,-0.27154,0.65168643,-1.6720835,0.0015550443,0.46218842,-0.03642802,0.00025962404,-9.697216,4.3547454,52.584053,0.47929037,3.2360592,0.096624814,inf,inf,inf,inf,0,1,0,1,4,3,4,3,3,1,1,1,0,0,1
348543933,348543648,42042860,60.1877325,24.832678599999998,-1.9890405,-29.253262,-3.3864172,5.966798,12.206481,3.9108057,-0.19237125,-1.5062035,-0.272453,-0.2724659,0.7765232,0.9350506,0.3003918,-0.6899982,-0.16701795,-0.32222363,-1.672275,0.0015743924,0.46191534,-0.03642802,0.00026124675,-9.697216,4.490826,54.013626,0.48241356,3.281439,0.09695133,inf,inf,inf,inf,0,1,0,1,4,3,4,3,3,1,1,1,0,0,1
349043917,349043648,42042860,60.1877325,24.832678599999998,-2.3304482,-29.856133,-3.522155,5.966798,12.206481,3.9108057,-0.2341569,-1.5149761,-0.2753536,-0.27420852,0.7765232,0.9350506,0.3003918,-0.31589124,0.7514116,-1.0407017,-1.6729614,0.001593988,0.46123543,-0.03642802,0.00026291134,-9.697216,4.626564,55.466263,0.48102754,3.3270798,0.09681139,inf,inf,inf,inf,0,1,0,1,4,3,4,3,3,1,1,1,0,0,1
349544070,349543648,42042860,60.1877325,24.832678599999998,-2.6420217,-30.513433,-3.6347873,5.966798,12.206481,3.9108057,-0.2723446,-1.543797,-0.26868153,-0.2491326,0.7765232,0.9350506,0.3003918,0.2234288,-1.6378397,-0.3564598,-1.6736183,0.001611893,0.46058387,-0.03642802,0.00026403234,-9.697216,4.7391963,56.914013,0.479646,3.3703785,0.09667083,inf,inf,inf,inf,0,1,0,1,4,3,4,3,3,1,1,1,0,0,1
350044065,350043649,42042860,60.1877325,24.832678599999998,-2.8933277,-31.217333,-3.7173133,5.966798,12.206481,3.9108057,-0.3049446,-1.5683817,-0.25688827,-0.20784074,0.7765232,0.9350506,0.3003918,-0.18116559,0.4280787,-1.4915658,-1.673915,0.0016292174,0.46031743,-0.03642802,0.00026497006,-9.697216,4.821722,58.372543,0.48278117,3.4129164,0.09700501,inf,inf,inf,inf,0,1,0,1,4,3,4,3,3,1,1,1,0,0,1
350543915,350543647,42042860,60.1877325,24.832678599999998,-3.1540437,-31.949942,-3.7681427,5.966798,12.206481,3.9108057,-0.34085488,-1.5984913,-0.24680927,-0.16079989,0.7765232,0.9350506,0.3003918,-0.19167644,-0.049290735,-1.4912959,-1.6743914,0.0016478101,0.45984718,-0.03642802,0.00026628282,-9.697216,4.872552,59.86868,0.48139796,3.457299,0.096867174,inf,inf,inf,inf,0,1,0,1,4,3,4,3,3,1,1,1,0,0,1
351043919,351043648,42042860,60.1877325,24.832678599999998,-3.3974154,-32.71332,-3.810137,5.966798,12.206481,3.9108057,-0.37073964,-1.6383176,-0.21215512,-0.10428175,0.7765232,0.9350506,0.3003918,-0.1512771,-0.9881151,1.7640082,-1.6747655,0.0016671852,0.45947886,-0.03642802,0.000267806,-9.697216,4.914546,61.39564,0.48004514,3.5024996,0.09673259,inf,inf,inf,inf,0,1,0,1,4,3,4,3,3,1,1,1,0,0,1
351543914,351543648,42042860,60.1877325,24.832678599999998,-3.6607168,-33.549793,-3.8407764,5.966798,12.206481,3.9108057,-0.4004518,-1.6709261,-0.20008843,-0.07879827,0.7765232,0.9350506,0.3003918,0.79792655,-0.27028817,1.3263828,-1.6750998,0.0016906392,0.45918778,-0.03642802,0.00027043524,-9.697216,4.9451857,63.001217,0.483231,3.5529242,0.09707239,inf,inf,inf,inf,0,1,0,1,4,3,4,3,3,1,1,1,0,0,1
352044036,352043648,42042860,60.1877325,24.832678599999998,-3.8939416,-34.434208,-3.8372965,5.966798,12.206481,3.9108057,-0.43163198,-1.704562,-0.17004201,-0.023991669,0.7765232,0.9350506,0.3003918,0.06650577,0.5056804,0.34144205,-1.6758834,0.0017114478,0.45848763,-0.03642802,0.00027226034,-9.697216,4.9417057,64.58866,0.48189285,3.5997493,0.09694049,inf,inf,inf,inf,0,1,0,1,4,3,4,3,3,1,1,1,0,0,1
352544049,352543648,42042860,60.1877325,24.832678599999998,-4.0966325,-35.34881,-3.8136287,5.966798,12.206481,3.9108057,-0.46495348,-1.7447095,-0.16098493,0.0054503884,0.7765232,0.9350506,0.3003918,-0.49821064,0.26012397,-3.1847055,-1.6764017,0.0017292714,0.45804685,-0.03642802,0.00027324425,-9.697216,4.9180374,66.15243,0.4805533,3.6429164,0.0968085,inf,inf,inf,inf,0,1,0,1,4,3,4,3,3,1,1,1,0,0,1
353044081,353043648,42042860,60.1877325,24.832678599999998,-4.3288665,-36.249752,-3.7803628,5.966798,12.206481,3.9108057,-0.4912293,-1.780164,-0.14301617,0.037611034,0.7765232,0.9350506,0.3003918,-0.46172836,-0.48491555,-0.7402951,-1.6770276,0.001748874,0.45749754,-0.03642802,0.00027470628,-9.697216,4.884772,67.76156,0.4792127,3.68835,0.09667158,inf,inf,inf,inf,0,1,0,1,4,3,4,3,3,1,1,1,0,0,1
353544035,353543648,42042860,60.1877325,24.832678599999998,-4.55476,-37.21515,-3.7567024,5.966798,12.206481,3.9108057,-0.521113,-1.8183935,-0.1213801,0.053692035,0.7765232,0.9350506,0.3003918,0.5194225,-0.9395194,-0.38527715,-1.6775633,0.0017667494,0.45704785,-0.03642802,0.00027568892,-9.697216,4.8611116,69.36514,0.48237103,3.7319925,0.09699948,inf,inf,inf,inf,0,1,0,1,4,3,4,3,3,1,1,1,0,0,1
354044038,354043648,42042860,60.1877325,24.832678599999998,-4.7876287,-38.160923,-3.735132,5.966798,12.206481,3.9108057,-0.5531709,-1.8587986,-0.09577099,0.06695821,0.7765232,0.9350506,0.3003918,0.060619034,-0.24427876,0.5456453,-1.6776856,0.0017842967,0.45697725,-0.03642802,0.0002765928,-9.697216,4.839541,70.98324,0.48101604,3.7749453,0.09686116,inf,inf,inf,inf,0,1,0,1,4,3,4,3,3,1,1,1,0,0,1
354544070,354543648,42042860,60.1877325,24.832678599999998,-5.07351,-39.083485,-3.6901507,5.966798,12.206481,3.9108057,-0.58142686,-1.8924974,-0.078574724,0.08814777,0.7765232,0.9350506,0.3003918,0.023152176,-0.20084336,-0.039556812,-1.67541,0.0018018142,0.4592921,-0.03642802,0.00027751926,-9.697216,4.7945595,72.62049,0.47966093,3.818051,0.09672037,inf,inf,inf,inf,0,1,0,1,4,3,4,3,3,1,1,1,0,0,1
355044035,355043648,42042860,60.1877325,24.832678599999998,-5.3903146,-40.035835,-3.63606,5.966798,12.206481,3.9108057,-0.6168859,-1.9280361,-0.059861667,0.107602574,0.7765232,0.9350506,0.3003918,-0.004069612,-0.09518108,0.017482597,-1.6759053,0.001819299,0.4588729,-0.03642802,0.00027847794,-9.697216,4.740469,74.27691,0.48281735,3.8611248,0.097049385,inf,inf,inf,inf,0,1,0,1,4,3,4,3,3,1,1,1,0,0,1
355544051,355543648,42042860,60.1877325,24.832678599999998,-5.6593766,-40.98509,-3.5815196,5.966798,12.206481,3.9108057,-0.64693344,-1.9616885,-0.0423262,0.11966775,0.7765232,0.9350506,0.3003918,-0.084261864,-0.05937111,0.005817747,-1.6762024,0.0018367559,0.45865217,-0.03642802,0.0002794505,-9.697216,4.6859283,75.95224,0.481448,3.9042616,0.09690604,inf,inf,inf,inf,0,1,0,1,4,3,4,3,3,1,1,1,0,0,1
