timestamp,timestamp_sample,ref_timestamp,ref_lat,ref_lon,x,y,z,delta_xy[0],delta_xy[1],delta_z,vx,vy,vz,z_deriv,delta_vxy[0],delta_vxy[1],delta_vz,ax,ay,az,heading,heading_var,unaided_heading,delta_heading,tilt_var,ref_alt,dist_bottom,eph,epv,evh,evv,vxy_max,vz_max,hagl_min,hagl_max,xy_valid,z_valid,v_xy_valid,v_z_valid,xy_reset_counter,z_reset_counter,vxy_reset_counter,vz_reset_counter,heading_reset_counter,heading_good_for_control,xy_global,z_global,dist_bottom_valid,dist_bottom_sensor_bitfield,dead_reckoning
200545989,200545672,42042859,60.1877325,24.832678599999998,0.04340976,-0.9810509,-3.101017,0.1979316,0.09433211,2.0861626e-07,-0.0013302235,-0.0055290502,0.030570652,0.05354184,-0.025199575,0.050895337,0.014763279,0.07378903,0.104314245,-0.11090478,-2.1918807,0.050289325,-0.014267945,0.0075809797,6.492692e-05,-9.696816,0.09488416,0.23999926,0.22709708,0.108340636,0.06463738,inf,inf,inf,inf,1,1,1,1,3,2,3,2,2,0,1,1,1,0,0
201045963,201045671,42042859,60.1877325,24.832678599999998,0.042708874,-0.9876676,-3.0757227,0.1979316,0.09433211,2.0861626e-07,0.0005039675,0.0017482532,0.030468415,0.051815554,-0.025199575,0.050895337,0.014763279,-0.2072343,-0.16180886,-0.07680525,-2.1915383,0.050282795,-0.014280303,0.0075809797,6.4937936e-05,-9.696816,0.09350419,0.2403539,0.2277485,0.1084151,0.06469199,inf,inf,inf,inf,1,1,1,1,3,2,3,2,2,0,1,1,1,0,0
201545965,201545671,42042859,60.1877325,24.832678599999998,0.038095158,-0.9919042,-3.0509014,0.1979316,0.09433211,2.0861626e-07,-0.0012390435,0.008247436,0.030915136,0.050575763,-0.025199575,0.050895337,0.014763279,-0.020631906,0.061996542,-0.20419079,-2.190825,0.050265018,-0.014323656,0.0075809797,6.49353e-05,-9.696816,0.09200573,0.2406757,0.22790715,0.10842317,0.06468999,inf,inf,inf,inf,1,1,1,1,3,2,3,2,2,0,1,1,1,0,0
202045968,202045671,42042859,60.1877325,24.832678599999998,0.034985457,-0.993012,-3.0352302,0.1979316,0.09433211,2.0861626e-07,-0.0003281734,0.013629538,0.026670879,0.039684806,-0.025199575,0.050895337,0.014763279,-0.22049236,0.060064048,0.21354017,-2.190257,0.05024026,-0.014344824,0.0075809797,6.4944456e-05,-9.696816,0.089356184,0.24100749,0.22805357,0.10848816,0.064691834,inf,inf,inf,inf,1,1,1,1,3,2,3,2,2,0,1,1,1,0,0
202546031,202545671,42042859,60.1877325,24.832678599999998,0.028099865,-0.9966375,-3.0209515,0.1979316,0.09433211,2.0861626e-07,-0.00026365876,0.015359927,0.022876764,0.033309203,-0.025199575,0.050895337,0.014763279,-0.13956255,-0.1402174,0.07616486,-2.1894166,0.050210834,-0.014400697,0.0075809797,6.494087e-05,-9.696816,0.09447241,0.2412857,0.22864386,0.108487196,0.06473519,inf,inf,inf,inf,1,1,1,1,3,2,3,2,2,0,1,1,1,0,0
203045955,203045675,42042859,60.1877325,24.832678599999998,0.018218052,-1.001898,-3.0061867,0.1979316,0.09433211,2.0861626e-07,-0.0036455386,0.015676156,0.019498326,0.029001025,-0.025199575,0.050895337,0.014763279,0.22620116,0.20848268,-0.3969976,-2.1885827,0.05018717,-0.014388484,0.0075809797,6.494977e-05,-9.696816,0.09633279,0.24156459,0.22874005,0.108490676,0.06473324,inf,inf,inf,inf,1,1,1,1,3,2,3,2,2,0,1,1,1,0,0
203546008,203545719,42042859,60.1877325,24.832678599999998,0.005435685,-1.0101956,-2.989311,0.1979316,0.09433211,2.0861626e-07,-0.011404753,0.008766508,0.020618169,0.031592175,-0.025199575,0.050895337,0.014763279,-0.0035887042,0.05892657,-0.18370803,-2.1881123,0.05016969,-0.014502273,0.0075809797,6.495247e-05,-9.696816,0.09717965,0.24180964,0.22880992,0.10847873,0.06472478,inf,inf,inf,inf,1,1,1,1,3,2,3,2,2,0,1,1,1,0,0
204045996,204045714,42042859,60.1877325,24.832678599999998,-0.0076841344,-1.0114745,-2.9681323,0.1979316,0.09433211,2.0861626e-07,-0.0147595145,0.010182241,0.021642148,0.0373097,-0.025199575,0.050895337,0.014763279,0.6394674,-0.2943248,0.20064154,-2.1874275,0.050159033,-0.014442917,0.0075809797,6.49615e-05,-9.696816,0.10233188,0.24209309,0.2294033,0.10851269,0.06477572,inf,inf,inf,inf,1,1,1,1,3,2,3,2,2,0,1,1,1,0,0
204545970,204545709,42042859,60.1877325,24.832678599999998,-0.015670897,-1.0015488,-2.9424438,0.1979316,0.09433211,2.0861626e-07,-0.018284878,0.015527564,0.029098244,0.049487416,-0.025199575,0.050895337,0.014763279,-0.35300285,-0.1375344,0.02970302,-2.1869175,0.05015121,-0.014541161,0.0075809797,6.496876e-05,-9.696816,0.09907794,0.24233681,0.22949947,0.108501434,0.064770564,inf,inf,inf,inf,1,1,1,1,3,2,3,2,2,0,1,1,0,0,0
205045973,205045704,42042859,60.1877325,24.832678599999998,-0.01736505,-1.0053998,-2.921162,0.1979316,0.09433211,2.0861626e-07,-0.01358288,0.016402956,0.022465596,0.039569885,-0.025199575,0.050895337,0.014763279,0.08307284,-1.1540332,1.0011785,-2.1861029,0.050143126,-0.014456275,0.0075809797,6.499715e-05,-9.696816,0.09178519,0.24257915,0.22957392,0.108562544,0.06476804,inf,inf,inf,inf,1,1,1,1,3,2,3,2,2,0,1,1,0,0,0
205546023,205545699,42042859,60.1877325,24.832678599999998,-0.00091635494,-1.0200459,-2.9261084,0.1979316,0.09433211,2.0861626e-07,0.10335664,-0.060625605,-0.05660199,-0.049303286,-0.025199575,0.050895337,0.014763279,0.8581396,0.9076929,1.3614309,-2.1805012,0.050079945,-0.009014873,0.0075809797,6.498549e-05,-9.696816,0.103770494,0.24278888,0.22964014,0.10919951,0.06476092,inf,inf,inf,inf,1,1,1,1,3,2,3,2,2,0,1,1,0,0,0
206045981,206045694,42042859,60.1877325,24.832678599999998,0.09030446,-1.0548931,-3.0393908,0.1979316,0.09433211,2.0861626e-07,0.21582073,-0.03720034,-0.36192074,-0.35671252,-0.025199575,0.050895337,0.014763279,-0.73604107,-0.2910505,-2.5772703,-2.1106591,0.047318615,0.053941812,0.0075809797,6.477565e-05,-9.696816,0.21705294,0.24301296,0.23020563,0.114894316,0.06481511,inf,inf,inf,inf,1,1,1,1,3,2,3,2,2,0,1,1,0,0,0
207045959,207045684,42042859,60.1877325,24.832678599999998,0.18779309,-1.035468,-3.5910542,0.1979316,0.09433211,2.0861626e-07,-0.07589356,0.031774376,-0.7762495,-0.7541344,-0.025199575,0.050895337,0.014763279,-2.3176591,-1.110466,2.1340544,-2.0530858,0.04126461,0.099712394,0.0075809797,6.394017e-05,-9.696816,0.76871634,0.24348705,0.23024991,0.11286371,0.06481362,inf,inf,inf,inf,1,1,1,1,3,2,3,2,2,0,1,1,0,0,0
207545975,207545678,42042859,60.1877325,24.832678599999998,0.13388427,-1.0300058,-4.0032864,0.1979316,0.09433211,2.0861626e-07,-0.17137301,0.060914196,-0.9363951,-0.9083584,-0.025199575,0.050895337,0.014763279,-0.7479164,-0.33816645,-0.48348957,-2.0746908,0.03707626,0.07059538,0.0075809797,6.3362735e-05,-9.696816,1.1809485,0.24368982,0.230722,0.11472189,0.064862646,inf,inf,inf,inf,1,1,1,1,3,2,3,2,2,0,1,1,0,0,0
208045967,208045674,42042859,60.1877325,24.832678599999998,0.03970678,-1.009428,-4.4911976,0.1979316,0.09433211,2.0861626e-07,-0.19046651,0.0685048,-1.0824215,-1.0548424,-0.025199575,0.050895337,0.014763279,1.0208442,-1.4940982,-1.3558778,-2.1467798,0.033330604,-0.011382904,0.0075809797,6.315418e-05,-9.696816,1.6688597,0.24393505,0.23069221,0.11531067,0.06487707,inf,inf,inf,inf,1,1,1,1,3,2,3,2,2,0,1,1,0,0,0
208545957,208545672,42042859,60.1877325,24.832678599999998,-0.0116001135,-0.994434,-5.0433903,0.1979316,0.09433211,2.0861626e-07,-0.09299041,-0.016656596,-1.1516752,-1.1326178,-0.025199575,0.050895337,0.014763279,0.9567699,-2.0990474,0.8307873,-2.2255058,0.06621641,-0.059509214,-0.03770409,6.3066895e-05,-9.696816,2.2210524,0.24417894,0.23064192,0.11231791,0.06488498,inf,inf,inf,inf,1,1,1,1,3,2,3,2,3,0,1,1,0,0,0
209045947,209045670,42042859,60.1877325,24.832678599999998,-0.093691535,-1.0572366,-5.654667,0.1979316,0.09433211,2.0861626e-07,-0.28752172,-0.3094901,-1.251953,-1.2533112,-0.025199575,0.050895337,0.014763279,0.40859365,-1.1407638,-1.7407516,-2.2058947,0.060854357,-0.050335713,-0.03770409,6.32181e-05,-9.696816,2.832329,0.24441123,0.23107098,0.11943548,0.06495102,inf,inf,inf,inf,1,1,1,1,3,2,3,2,3,0,1,1,0,0,0
209545966,209545671,42042859,60.1877325,24.832678599999998,-0.3014231,-1.3464717,-6.3342156,0.1979316,0.09433211,2.0861626e-07,-0.572503,-0.80024064,-1.3845017,-1.4034152,-0.025199575,0.050895337,0.014763279,-0.89018095,-2.0091026,-1.4425853,-2.0972185,0.03797374,0.028923184,-0.03770409,6.412029e-05,-9.696816,3.5118778,0.2446101,0.2309809,0.15367483,0.06500315,inf,inf,inf,inf,1,1,1,1,3,2,3,2,3,1,1,1,0,0,0
210045967,210045671,42042859,60.1877325,24.832678599999998,-0.65371585,-1.9113652,-7.055823,0.1979316,0.09433211,2.0861626e-07,-0.9056293,-1.4213995,-1.4244742,-1.4492849,-0.025199575,0.050895337,0.014763279,-0.39409897,-0.8543591,-1.7835187,-1.9905026,0.01691475,0.11899647,-0.03770409,6.57662e-05,-9.696816,4.233485,0.24484642,0.23088169,0.1601179,0.06507505,inf,inf,inf,inf,1,1,1,1,3,2,3,2,3,1,1,1,0,0,0
210545980,210545671,42042859,60.1877325,24.832678599999998,-1.1633784,-2.7741234,-7.8044844,0.1979316,0.09433211,2.0861626e-07,-1.15833,-1.9560262,-1.4465871,-1.4800537,-0.025199575,0.050895337,0.014763279,0.030519933,-1.9761769,0.32909644,-1.9848491,0.008162278,0.11364499,-0.03770409,6.737971e-05,-9.696816,4.9821463,0.24506044,0.23075025,0.14718382,0.06514828,inf,inf,inf,inf,1,1,1,1,3,2,3,2,3,1,1,1,0,0,0
211545971,211545671,42042859,60.1877325,24.832678599999998,-2.4092064,-5.185507,-9.378676,0.1979316,0.09433211,2.0861626e-07,-1.2046245,-2.604134,-1.738886,-1.7720215,-0.025199575,0.050895337,0.014763279,-1.338857,-3.6152232,-0.056582883,-1.9308938,0.0040370086,0.17794357,-0.03770409,7.0777045e-05,-9.696816,6.5563383,0.24554324,0.23098448,0.12131372,0.06520394,inf,inf,inf,inf,1,1,1,1,3,2,3,2,3,1,1,1,0,0,0
212045963,212045671,42042859,60.1877325,24.832678599999998,-2.998798,-6.517009,-10.229386,0.1979316,0.09433211,2.0861626e-07,-1.111545,-2.5488071,-1.2612505,-1.2871861,-0.025199575,0.050895337,0.014763279,-3.2230287,3.4588919,1.0800561,-1.9612213,0.003756644,0.14474705,-0.03770409,7.2125025e-05,-9.696816,7.407048,0.24576801,0.23086247,0.1123284,0.06512942,inf,inf,inf,inf,1,1,1,1,3,2,3,2,3,1,1,1,0,0,0
212545957,212545672,42042859,60.1877325,24.832678599999998,-3.5506823,-7.7876163,-10.652753,0.1979316,0.09433211,2.0861626e-07,-0.9811126,-2.4051704,-0.6825735,-0.7232746,-0.025199575,0.050895337,0.014763279,-1.6324792,0.7413216,-0.7892946,-1.9648428,0.0037223783,0.14306429,-0.03770409,7.33359e-05,-9.696816,7.830415,0.24593064,0.23128974,0.10786924,0.0651318,inf,inf,inf,inf,1,1,1,1,3,2,3,2,3,1,1,1,0,0,0
213045946,213045671,42042859,60.1877325,24.832678599999998,-3.9658961,-8.825419,-11.060692,0.1979316,0.09433211,2.0861626e-07,-0.5534144,-1.6260864,-0.6689773,-0.7454311,-0.025199575,0.050895337,0.014763279,-1.4861139,2.1158066,-0.124572404,-1.9597918,0.003521848,0.14827889,-0.03770409,7.2378476e-05,-9.696816,8.238354,0.2462425,0.23139653,0.11943125,0.06514817,inf,inf,inf,inf,1,1,1,1,3,2,3,2,3,1,1,1,0,0,0
213545964,213545671,42042859,60.1877325,24.832678599999998,-4.177203,-9.472533,-11.4030695,0.1979316,0.09433211,2.0861626e-07,-0.23298329,-0.86805606,-0.59263355,-0.66820323,-0.025199575,0.050895337,0.014763279,-1.210024,0.13950709,1.2848397,-1.9371744,0.0026220675,0.17586009,-0.03770409,6.788569e-05,-9.696816,8.580731,0.246829,0.23175538,0.1354653,0.06532472,inf,inf,inf,inf,1,1,1,1,3,2,3,2,3,1,1,1,0,0,0
214045966,214045671,42042859,60.1877325,24.832678599999998,-4.248658,-9.803576,-11.713691,0.1979316,0.09433211,2.0861626e-07,-0.059864417,-0.38385394,-0.62708354,-0.6799666,-0.025199575,0.050895337,0.014763279,-0.086157024,2.6517258,-1.4574709,-1.9194611,0.0018109411,0.1973963,-0.03770409,6.48946e-05,-9.696816,8.891353,0.24730821,0.23265488,0.13254324,0.065444335,inf,inf,inf,inf,1,1,1,1,3,2,3,2,3,1,1,1,0,0,0
214545949,214545671,42042859,60.1877325,24.832678599999998,-4.230302,-9.898881,-12.028839,0.1979316,0.09433211,2.0861626e-07,0.06215987,-0.07894094,-0.68726444,-0.7084137,-0.025199575,0.050895337,0.014763279,0.6498965,3.0159307,-1.3426827,-1.9130979,0.0013942275,0.2062619,-0.03770409,6.4051856e-05,-9.696816,9.206501,0.24859998,0.23343292,0.12680994,0.06561899,inf,inf,inf,inf,1,1,1,1,3,2,3,2,3,1,1,1,0,0,0
215045958,215045671,42042859,60.1877325,24.832678599999998,-4.1965594,-9.896601,-12.344072,0.1979316,0.09433211,2.0861626e-07,0.10293737,-0.051360987,-0.70000386,-0.68714863,-0.025199575,0.050895337,0.014763279,-1.2668705,-2.2037733,1.5705844,-1.9171258,0.0012018523,0.19842546,-0.03770409,6.411834e-05,-9.696816,9.521734,0.2507083,0.23461404,0.121177405,0.06588641,inf,inf,inf,inf,1,1,1,1,3,2,3,2,3,1,1,1,0,0,0
215546007,215545671,42042859,60.1877325,24.832678599999998,-4.129783,-9.860435,-12.642307,0.1979316,0.09433211,2.0861626e-07,0.12474113,0.1114781,-0.70611006,-0.6600538,-0.025199575,0.050895337,0.014763279,2.3296525,-0.46685013,-2.8477964,-1.9335338,0.0011249656,0.18349136,-0.03770409,6.459154e-05,-9.696816,9.819969,0.25376558,0.23626785,0.119059004,0.066322096,inf,inf,inf,inf,1,1,1,1,3,2,3,2,3,1,1,1,0,0,0
216045962,216045671,42042859,60.1877325,24.832678599999998,-4.053242,-9.75388,-12.927527,0.1979316,0.09433211,2.0861626e-07,0.05361769,0.15545304,-0.6628444,-0.5988312,-0.025199575,0.050895337,0.014763279,0.14325029,0.22914505,-1.5438238,-1.9620949,0.00108689,0.15520191,-0.03770409,6.50891e-05,-9.696816,10.105189,0.25693923,0.23865181,0.11809121,0.06684147,inf,inf,inf,inf,1,1,1,1,3,2,3,2,3,1,1,1,0,0,0
216545947,216545671,42042859,60.1877325,24.832678599999998,-4.019024,-9.73573,-13.17854,0.1979316,0.09433211,2.0861626e-07,-0.085654646,-0.22078833,-0.54494965,-0.4644017,-0.025199575,0.050895337,0.014763279,0.5997348,-2.8682134,-2.1825092,-1.9597499,0.001075817,0.15905978,-0.03770409,6.5253924e-05,-9.696816,10.356202,0.25912786,0.24031109,0.11608292,0.0670486,inf,inf,inf,inf,1,1,1,1,3,2,3,2,3,1,1,1,0,0,0
217045978,217045671,42042859,60.1877325,24.832678599999998,-4.0535474,-9.858936,-13.372268,0.1979316,0.09433211,2.0861626e-07,-0.109616786,-0.2853575,-0.5732969,-0.46915993,-0.025199575,0.050895337,0.014763279,-1.9876271,3.8297005,1.144073,-1.952916,0.001074777,0.16880082,-0.03770409,6.480678e-05,-9.696816,10.54993,0.2588103,0.24112034,0.11351644,0.06676393,inf,inf,inf,inf,1,1,1,1,3,2,3,2,3,1,1,1,0,0,0
217545984,217545671,42042859,60.1877325,24.832678599999998,-4.066387,-9.90541,-13.574085,0.1979316,0.09433211,2.0861626e-07,0.008769678,-0.018955326,-0.6007345,-0.46979365,-0.025199575,0.050895337,0.014763279,-3.6128447,3.0784695,1.94282,-1.9396838,0.0010736228,0.18178226,-0.03770409,6.4414155e-05,-9.696816,10.751747,0.25828096,0.24219756,0.11146952,0.066534,inf,inf,inf,inf,1,1,1,1,3,2,3,2,3,1,1,1,0,0,0
218045960,218045671,42042859,60.1877325,24.832678599999998,-4.1338243,-9.9650955,-13.785278,0.1979316,0.09433211,2.0861626e-07,-0.25206935,-0.6575793,-0.6124323,-0.46948695,-0.025199575,0.050895337,0.014763279,0.29040995,-2.607192,0.032376308,-1.9229833,0.0010746189,0.20450272,-0.03770409,6.416696e-05,-9.696816,10.96294,0.25787744,0.2423674,0.110940084,0.066288315,inf,inf,inf,inf,1,1,1,1,3,2,3,2,3,1,1,1,0,0,0
218545959,218545675,42042859,60.1877325,24.832678599999998,-4.3874593,-10.534727,-13.999942,0.1979316,0.09433211,2.0861626e-07,-0.6359524,-1.5504739,-0.56903267,-0.44279304,-0.025199575,0.050895337,0.014763279,0.7273466,2.2200751,0.38740313,-1.941357,0.0010139514,0.17811128,-0.03770409,6.357045e-05,-9.696816,11.177604,0.25750658,0.24235067,0.1179495,0.06623072,inf,inf,inf,inf,1,1,1,1,3,2,3,2,3,1,1,1,0,0,0
219045946,219045671,42042859,60.1877325,24.832678599999998,-4.665228,-11.239622,-14.283803,0.1979316,0.09433211,2.0861626e-07,-0.5379671,-1.2577149,-0.72260475,-0.5972419,-0.025199575,0.050895337,0.014763279,-0.14007133,0.55510455,3.812844,-1.9615477,0.0009206918,0.15373299,-0.03770409,6.313092e-05,-9.696816,11.461465,0.25732836,0.24286887,0.115216546,0.06625791,inf,inf,inf,inf,1,1,1,1,3,2,3,2,3,1,1,1,0,0,0
219545963,219545671,42042859,60.1877325,24.832678599999998,-4.923869,-11.852098,-14.499191,0.1979316,0.09433211,2.0861626e-07,-0.5167852,-1.1237849,-0.45787975,-0.33106384,-0.025199575,0.050895337,0.014763279,-4.7897124,-0.44838744,4.156604,-1.9589133,0.0008989493,0.15455097,-0.03770409,6.2965024e-05,-9.696816,11.676853,0.25731197,0.2427451,0.110399544,0.06626652,inf,inf,inf,inf,1,1,1,1,3,2,3,2,3,1,1,1,0,0,0
220045961,220045671,42042859,60.1877325,24.832678599999998,-5.1809063,-12.475497,-14.672577,0.1979316,0.09433211,2.0861626e-07,-0.46044362,-1.1956061,-0.3727946,-0.25802985,-0.025199575,0.050895337,0.014763279,1.5148561,0.7883994,5.9548407,-1.948694,0.00089486,0.16091143,-0.03770409,6.30137e-05,-9.696816,11.850239,0.25741994,0.24260244,0.11001939,0.06624224,inf,inf,inf,inf,1,1,1,1,3,2,3,2,3,1,1,1,0,0,0
221045942,221045671,42042859,60.1877325,24.832678599999998,-5.6296077,-13.543262,-14.964229,0.1979316,0.09433211,2.0861626e-07,-0.25472146,-0.65992343,-0.48814258,-0.36743584,-0.025199575,0.050895337,0.014763279,1.0930032,-0.64746433,0.23264569,-1.9518672,0.0009002734,0.15933733,-0.03770409,6.293431e-05,-9.696816,12.141891,0.2577001,0.24282488,0.10977605,0.066365905,inf,inf,inf,inf,1,1,1,1,3,2,3,2,3,1,1,1,0,0,0
221545966,221545671,42042859,60.1877325,24.832678599999998,-5.7413297,-13.797483,-15.092939,0.1979316,0.09433211,2.0861626e-07,-0.08850768,-0.25875112,-0.40454373,-0.26714137,-0.025199575,0.050895337,0.014763279,2.5243454,-1.4090208,0.5303746,-1.9129138,0.00089637935,0.19808738,-0.03770409,6.2632374e-05,-9.696816,12.270601,0.2576668,0.2425398,0.11067611,0.0662999,inf,inf,inf,inf,1,1,1,1,3,2,3,2,3,1,1,1,0,0,0
222046001,222045671,42042859,60.1877325,24.832678599999998,-5.7695785,-13.846136,-15.224581,0.1979316,0.09433211,2.0861626e-07,0.0011821763,0.023461582,-0.48291698,-0.32716262,-0.025199575,0.050895337,0.014763279,-0.6364442,-2.4550445,2.4068153,-1.894322,0.00087985495,0.21786797,-0.03770409,6.23676e-05,-9.696816,12.402243,0.25755858,0.24213278,0.11155973,0.06622477,inf,inf,inf,inf,1,1,1,1,3,2,3,2,3,1,1,1,0,0,0
223046128,223045671,42042859,60.1877325,24.832678599999998,-5.797853,-13.955934,-15.472717,0.1979316,0.09433211,2.0861626e-07,-0.1624767,-0.13213482,-0.4333163,-0.25213066,-0.025199575,0.050895337,0.014763279,-1.1087369,-1.0339984,-0.76963884,-1.9506419,0.00086740486,0.16202664,-0.03770409,6.207232e-05,-9.696816,12.650379,0.25718406,0.24166198,0.109451674,0.06590352,inf,inf,inf,inf,1,1,1,1,3,2,3,2,3,1,1,1,0,0,0
223546162,223545671,42042859,60.1877325,24.832678599999998,-5.8904448,-13.999183,-15.60567,0.1979316,0.09433211,2.0861626e-07,-0.2067914,-0.080136456,-0.45335254,-0.2716704,-0.025199575,0.050895337,0.014763279,-0.22621344,0.22350483,2.151826,-1.9252273,0.0008717061,0.18921225,-0.03770409,6.198516e-05,-9.696816,12.783332,0.25697896,0.24107587,0.10940909,0.06573933,inf,inf,inf,inf,1,1,1,1,3,2,3,2,3,1,1,1,0,0,0
224046130,224045671,42042859,60.1877325,24.832678599999998,-5.9487085,-14.031052,-15.720625,0.1979316,0.09433211,2.0861626e-07,0.0021244055,-0.048082273,-0.41968733,-0.23417826,-0.025199575,0.050895337,0.014763279,1.8392404,-0.12029739,-1.0774413,-1.9106096,0.0008771452,0.20392942,-0.03770409,6.191025e-05,-9.696816,12.898287,0.25677717,0.24104,0.109137125,0.06564804,inf,inf,inf,inf,1,1,1,1,3,2,3,2,3,1,1,1,0,0,0
224546114,224545670,42042859,60.1877325,24.832678599999998,-5.9221697,-14.037302,-15.863049,0.1979316,0.09433211,2.0861626e-07,0.1328972,-0.00664489,-0.46416143,-0.28771293,-0.025199575,0.050895337,0.014763279,0.7237929,-1.7099967,0.9619721,-1.9613546,0.0008825738,0.15281056,-0.03770409,6.182202e-05,-9.696816,13.04071,0.2565502,0.2404341,0.109322,0.06554242,inf,inf,inf,inf,1,1,1,1,3,2,3,2,3,1,1,1,0,0,0
225046113,225045671,42042859,60.1877325,24.832678599999998,-5.887001,-14.01081,-16.014452,0.1979316,0.09433211,2.0861626e-07,0.07675937,0.07436719,-0.48200446,-0.30975756,-0.025199575,0.050895337,0.014763279,-0.26676106,-1.2591193,1.4884835,-1.9946622,0.0008879671,0.11977866,-0.03770409,6.1821804e-05,-9.696816,13.192114,0.25676176,0.24007177,0.109789714,0.065593734,inf,inf,inf,inf,1,1,1,1,3,2,3,2,3,1,1,1,0,0,0
226046133,226045671,42042859,60.1877325,24.832678599999998,-5.847662,-13.966087,-16.298119,0.1979316,0.09433211,2.0861626e-07,-0.070383884,0.07877034,-0.35312125,-0.18560764,-0.025199575,0.050895337,0.014763279,-1.1732937,-0.58507115,2.241732,-1.956085,0.0009003292,0.15754992,-0.03770409,6.1556086e-05,-9.696816,13.4757805,0.25647587,0.23972362,0.109406225,0.06548587,inf,inf,inf,inf,1,1,1,1,3,2,3,2,3,1,1,1,0,0,0
226546124,226545671,42042859,60.1877325,24.832678599999998,-5.9071183,-13.921686,-16.429356,0.1979316,0.09433211,2.0861626e-07,-0.082994714,0.088491,-0.32774037,-0.16995996,-0.025199575,0.050895337,0.014763279,3.0019176,1.3548168,2.9904675,-1.9371754,0.000905903,0.17666073,-0.03770409,6.150645e-05,-9.696816,13.6070175,0.25640777,0.23932599,0.10937511,0.06545461,inf,inf,inf,inf,1,1,1,1,3,2,3,2,3,1,1,1,0,0,0
227046168,227045671,42042859,60.1877325,24.832678599999998,-5.961882,-13.8861265,-16.532104,0.1979316,0.09433211,2.0861626e-07,-0.051913604,-0.009228445,-0.23262961,-0.08498816,-0.025199575,0.050895337,0.014763279,1.0211921,0.079157494,1.6959293,-1.9622821,0.0009113299,0.15312384,-0.03770409,6.1493454e-05,-9.696816,13.709766,0.25640872,0.23897485,0.10908747,0.0654408,inf,inf,inf,inf,1,1,1,1,3,2,3,2,3,1,1,1,0,0,0
227546164,227545671,42042859,60.1877325,24.832678599999998,-5.9811397,-13.865471,-16.643759,0.1979316,0.09433211,2.0861626e-07,-0.022164121,-0.03763393,-0.31952903,-0.18628511,-0.025199575,0.050895337,0.014763279,-0.12296614,-2.0941513,3.0728054,-1.9975518,0.00091603363,0.117352575,-0.03770409,6.149705e-05,-9.696816,13.821421,0.2563642,0.23914744,0.109282725,0.06549205,inf,inf,inf,inf,1,1,1,1,3,2,3,2,3,1,1,1,0,0,0
228046130,228045671,42042859,60.1877325,24.832678599999998,-6.024725,-13.880859,-16.785639,0.1979316,0.09433211,2.0861626e-07,-0.019797577,-0.09255078,-0.31152588,-0.18355182,-0.025199575,0.050895337,0.014763279,1.7556622,-1.3643897,3.4370017,-1.9771903,0.0009207238,0.13915257,-0.03770409,6.138765e-05,-9.696816,13.963301,0.2562982,0.2387188,0.109488785,0.06551823,inf,inf,inf,inf,1,1,1,1,3,2,3,2,3,1,1,1,0,0,0
228546131,228545671,42042859,60.1877325,24.832678599999998,-5.9873567,-13.959001,-16.908976,0.1979316,0.09433211,2.0861626e-07,0.26748878,-0.18913676,-0.33062753,-0.19990936,-0.025199575,0.050895337,0.014763279,-3.101841,0.97453135,-0.031390976,-1.9003718,0.0009243314,0.21321565,-0.03770409,6.1279745e-05,-9.696816,14.0866375,0.25614804,0.23823503,0.10966266,0.06548732,inf,inf,inf,inf,1,1,1,1,3,2,3,2,3,1,1,1,0,0,0
229046114,229045671,42042859,60.1877325,24.832678599999998,-5.8962784,-14.058128,-17.019188,0.1979316,0.09433211,2.0861626e-07,0.14246683,-0.15182307,-0.28063977,-0.14254811,-0.025199575,0.050895337,0.014763279,1.4371444,2.4038136,2.0996532,-1.9405496,0.00092644396,0.17232509,-0.03770409,6.117812e-05,-9.696816,14.19685,0.255984,0.23827511,0.10939306,0.06548945,inf,inf,inf,inf,1,1,1,1,3,2,3,2,3,1,1,1,0,0,0
229546155,229545671,42042859,60.1877325,24.832678599999998,-5.8915653,-14.1226845,-17.127653,0.1979316,0.09433211,2.0861626e-07,0.07696942,-0.076083265,-0.3127203,-0.17780992,-0.025199575,0.050895337,0.014763279,-0.11163064,1.980007,2.1729505,-1.922119,0.0009331876,0.19205669,-0.03770409,6.1154526e-05,-9.696816,14.305315,0.25576872,0.23773736,0.10905035,0.065474264,inf,inf,inf,inf,1,1,1,1,3,2,3,2,3,1,1,1,0,0,0
230046129,230045671,42042859,60.1877325,24.832678599999998,-5.8790627,-14.167608,-17.249645,0.1979316,0.09433211,2.0861626e-07,0.09072715,-0.043939278,-0.3106499,-0.1783315,-0.025199575,0.050895337,0.014763279,1.6022398,0.07761136,2.9814353,-1.9369304,0.00094142964,0.17715788,-0.03770409,6.11052e-05,-9.696816,14.427307,0.2555565,0.23719661,0.10911275,0.065440424,inf,inf,inf,inf,1,1,1,1,3,2,3,2,3,1,1,1,0,0,0
230546113,230545671,42042859,60.1877325,24.832678599999998,-5.8676033,-14.193002,-17.363464,0.1979316,0.09433211,2.0861626e-07,0.07437919,-0.047937788,-0.4153936,-0.28933287,-0.025199575,0.050895337,0.014763279,-2.1208038,2.2294958,-1.870701,-1.955152,0.00095014484,0.15913978,-0.03770409,6.10784e-05,-9.696816,14.541126,0.2553179,0.23718521,0.10888984,0.06545414,inf,inf,inf,inf,1,1,1,1,3,2,3,2,3,1,1,1,0,0,0
231046117,231045671,42042859,60.1877325,24.832678599999998,-5.8521748,-14.185376,-17.532782,0.1979316,0.09433211,2.0861626e-07,0.07647876,0.0259597,-0.40662003,-0.285389,-0.025199575,0.050895337,0.014763279,-0.48579872,-3.3229015,-0.7872457,-1.9514688,0.00095908967,0.16287993,-0.03770409,6.0961123e-05,-9.696816,14.7104435,0.25506723,0.23663732,0.10929129,0.06541758,inf,inf,inf,inf,1,1,1,1,3,2,3,2,3,1,1,1,0,0,0
231546134,231545671,42042859,60.1877325,24.832678599999998,-5.8214617,-14.160979,-17.682516,0.1979316,0.09433211,2.0861626e-07,0.07408266,-0.029434547,-0.41935977,-0.30042368,-0.025199575,0.050895337,0.014763279,-0.073659785,2.0927665,0.65736824,-1.9614435,0.0009681093,0.15191725,-0.03770409,6.091001e-05,-9.696816,14.860178,0.25478727,0.23608598,0.108940944,0.06534606,inf,inf,inf,inf,1,1,1,1,3,2,3,2,3,1,1,1,0,0,0
232046166,232045671,42042859,60.1877325,24.832678599999998,-5.791315,-14.178085,-17.826576,0.1979316,0.09433211,2.0861626e-07,0.0841564,-0.08105424,-0.3932843,-0.27870518,-0.025199575,0.050895337,0.014763279,-0.5364605,-4.344491,0.80132467,-1.9561116,0.0009773315,0.15732972,-0.03770409,6.088506e-05,-9.696816,15.004238,0.2545174,0.23554537,0.10891406,0.06527839,inf,inf,inf,inf,1,1,1,1,3,2,3,2,3,1,1,1,0,0,0
232546115,232545671,42042859,60.1877325,24.832678599999998,-5.7693844,-14.182765,-17.963783,0.1979316,0.09433211,2.0861626e-07,0.06496376,-0.024279624,-0.32494566,-0.21779676,-0.025199575,0.050895337,0.014763279,-0.025063643,1.2149756,3.3047717,-1.9277254,0.0009867788,0.18584222,-0.03770409,6.0880073e-05,-9.696816,15.141445,0.25422588,0.23551926,0.10870639,0.0652518,inf,inf,inf,inf,1,1,1,1,3,2,3,2,3,1,1,1,0,0,0
233045960,233045671,42042859,60.1877325,24.832678599999998,-5.7714977,-14.161643,-18.089903,0.1979316,0.09433211,2.0861626e-07,-0.10455153,0.040302508,-0.3246152,-0.22613433,-0.025199575,0.050895337,0.014763279,-0.16291897,0.40337396,-0.6164776,-1.9529965,0.0009965552,0.15929751,-0.03770409,6.094356e-05,-9.696816,15.267565,0.2539515,0.2349715,0.108779036,0.06519989,inf,inf,inf,inf,1,1,1,1,3,2,3,2,3,1,1,1,0,0,0
233545970,233545671,42042859,60.1877325,24.832678599999998,-5.8589973,-14.113172,-18.205465,0.1979316,0.09433211,2.0861626e-07,-0.18593773,0.09478831,-0.26239625,-0.16269846,-0.025199575,0.050895337,0.014763279,1.2023844,-1.8707814,1.081374,-1.9957726,0.0010043621,0.11832327,-0.03770409,6.1016788e-05,-9.696816,15.383127,0.2536512,0.23442127,0.10895326,0.06517816,inf,inf,inf,inf,1,1,1,1,3,2,3,2,3,1,1,1,0,0,0
235045946,235045671,42042859,60.1877325,24.832678599999998,-5.9306393,-14.012358,-18.540169,0.1979316,0.09433211,2.0861626e-07,0.20258705,-0.014494957,-0.298824,-0.18698743,-0.025199575,0.050895337,0.014763279,0.6175524,-2.512412,2.7339032,-1.9232272,0.0010308393,0.19213815,-0.03770409,6.0990016e-05,-9.696816,15.717831,0.2528588,0.2333753,0.1086904,0.065126166,inf,inf,inf,inf,1,1,1,1,3,2,3,2,3,1,1,1,0,0,0
235545970,235545671,42042859,60.1877325,24.832678599999998,-5.841305,-13.999005,-18.628475,0.1979316,0.09433211,2.0861626e-07,0.13268225,-0.033467222,-0.34437048,-0.23968105,-0.025199575,0.050895337,0.014763279,0.0911714,0.15100653,-2.052408,-1.939999,0.0010386036,0.17383765,-0.03770409,6.1014114e-05,-9.696816,15.806137,0.2525985,0.2333816,0.10865214,0.06512426,inf,inf,inf,inf,1,1,1,1,3,2,3,2,3,1,1,1,0,0,0
236045962,236045671,42042859,60.1877325,24.832678599999998,-5.818197,-14.060724,-18.755503,0.1979316,0.09433211,2.0861626e-07,0.095957644,-0.17537765,-0.33204436,-0.23449033,-0.025199575,0.050895337,0.014763279,0.59682864,-3.9141812,-0.30074808,-1.8933808,0.0010482789,0.22212511,-0.03770409,6.0975577e-05,-9.696816,15.933165,0.25237548,0.23289457,0.10869646,0.06508281,inf,inf,inf,inf,1,1,1,1,3,2,3,2,3,1,1,1,0,0,0
236545960,236545671,42042859,60.1877325,24.832678599999998,-5.7809477,-14.133662,-18.864037,0.1979316,0.09433211,2.0861626e-07,0.03604048,-0.10409015,-0.2848413,-0.19239636,-0.025199575,0.050895337,0.014763279,1.0080613,-2.2238822,2.3110769,-1.9408916,0.0010579727,0.17274696,-0.03770409,6.0960258e-05,-9.696816,16.041698,0.25213775,0.23239553,0.108443335,0.065020084,inf,inf,inf,inf,1,1,1,1,3,2,3,2,3,1,1,1,0,0,0
237045973,237045671,42042859,60.1877325,24.832678599999998,-5.778646,-14.170886,-18.984838,0.1979316,0.09433211,2.0861626e-07,0.06537374,-0.09314543,-0.3200354,-0.24030985,-0.025199575,0.050895337,0.014763279,-0.3312564,0.9550189,-1.0934846,-1.9504713,0.0010688339,0.16426802,-0.03770409,6.098469e-05,-9.696816,16.1625,0.2518966,0.23188491,0.10847826,0.06496934,inf,inf,inf,inf,1,1,1,1,3,2,3,2,3,1,1,1,0,0,0
237545945,237545671,42042859,60.1877325,24.832678599999998,-5.754887,-14.223756,-19.118599,0.1979316,0.09433211,2.0861626e-07,0.026892034,-0.13316002,-0.33412126,-0.26137084,-0.025199575,0.050895337,0.014763279,1.0378624,2.315901,-0.5660469,-1.9301715,0.0010797858,0.18309267,-0.03770409,6.0965995e-05,-9.696816,16.29626,0.25160867,0.23185784,0.10873406,0.0649471,inf,inf,inf,inf,1,1,1,1,3,2,3,2,3,1,1,1,0,0,0
238045988,238045702,42042859,60.1877325,24.832678599999998,-5.7497773,-14.258939,-19.242311,0.1979316,0.09433211,2.0861626e-07,0.025523165,-0.08594708,-0.32744104,-0.24977529,-0.025199575,0.050895337,0.014763279,0.8395559,2.546132,-0.12568039,-1.8998921,0.0010910111,0.2132904,-0.03770409,6.0956216e-05,-9.696816,16.419973,0.25134718,0.23132597,0.10862877,0.064894885,inf,inf,inf,inf,1,1,1,1,3,2,3,2,3,1,1,1,0,0,0
238546015,238545671,42042859,60.1877325,24.832678599999998,-5.7664165,-14.2678175,-19.362612,0.1979316,0.09433211,2.0861626e-07,-0.072206594,-0.0054879715,-0.35263756,-0.27183083,-0.025199575,0.050895337,0.014763279,0.19072755,1.8663002,-1.3620327,-1.909189,0.0011024306,0.20396152,-0.03770409,6.095448e-05,-9.696816,16.540274,0.25105917,0.23078115,0.10861993,0.06484596,inf,inf,inf,inf,1,1,1,1,3,2,3,2,3,1,1,1,0,0,0
239045945,239045671,42042859,60.1877325,24.832678599999998,-5.8089433,-14.215445,-19.472872,0.1979316,0.09433211,2.0861626e-07,-0.089160465,0.13312885,-0.2562287,-0.18105125,-0.025199575,0.050895337,0.014763279,-0.9084288,-1.4319092,0.32594857,-1.9242735,0.0011127449,0.18890117,-0.03770409,6.0979728e-05,-9.696816,16.650534,0.25078347,0.2307423,0.10852768,0.06487414,inf,inf,inf,inf,1,1,1,1,3,2,3,2,3,1,1,1,0,0,0
239545946,239545671,42042859,60.1877325,24.832678599999998,-5.773253,-14.142028,-19.432993,0.1979316,0.09433211,2.0861626e-07,0.45082146,0.10456639,0.48273784,0.55177444,-0.025199575,0.050895337,0.014763279,0.9631933,-1.3059708,2.305106,-1.939033,0.0011221548,0.17116393,-0.03770409,6.112681e-05,-9.696816,16.610655,0.2505043,0.23021074,0.10753726,0.06484266,inf,inf,inf,inf,1,1,1,1,3,2,3,2,3,1,1,1,0,0,0
240045964,240045671,42042859,60.1877325,24.832678599999998,-5.240325,-14.130809,-19.181616,0.1979316,0.09433211,2.0861626e-07,1.4674882,-0.0029327464,0.3723185,0.4193533,-0.025199575,0.050895337,0.014763279,-1.0820559,-2.5929465,2.4196973,-1.9785979,0.0010978626,0.139681,-0.03770409,6.164488e-05,-9.696816,16.359278,0.2501995,0.22970174,0.11218437,0.064942546,inf,inf,inf,inf,1,1,1,1,3,2,3,2,3,1,1,1,0,0,0
240545966,240545671,42042859,60.1877325,24.832678599999998,-4.426535,-14.161334,-19.014378,0.1979316,0.09433211,2.0861626e-07,1.6472176,-0.06864115,0.19902462,0.25325802,-0.025199575,0.050895337,0.014763279,-0.7364023,-2.1601217,0.3311975,-1.9861172,0.00102583,0.13226184,-0.03770409,6.1926934e-05,-9.696816,16.19204,0.24988076,0.2296769,0.1132719,0.06503309,inf,inf,inf,inf,1,1,1,1,3,2,3,2,3,1,1,1,0,0,0
241045953,241045671,42042859,60.1877325,24.832678599999998,-3.6315737,-14.2017,-18.890139,0.1979316,0.09433211,2.0861626e-07,1.3613626,-0.048284493,0.0538571,0.13739543,-0.025199575,0.050895337,0.014763279,-1.1436851,0.36345437,1.0255343,-1.977453,0.0009963058,0.13755098,-0.03770409,6.203163e-05,-9.696816,16.0678,0.24960797,0.22918318,0.11025061,0.06498172,inf,inf,inf,inf,1,1,1,1,3,2,3,2,3,1,1,1,0,0,0
241545949,241545671,42042859,60.1877325,24.832678599999998,-3.0424252,-14.223476,-18.808979,0.1979316,0.09433211,2.0861626e-07,0.8877458,-0.0077702887,-0.026300414,0.08205571,-0.025199575,0.050895337,0.014763279,0.286009,-0.5713613,-0.26994142,-1.9636798,0.001001011,0.14979239,-0.03770409,6.179839e-05,-9.696816,15.986641,0.24929704,0.22867873,0.1090878,0.064912245,inf,inf,inf,inf,1,1,1,1,3,2,3,2,3,1,1,1,0,0,0
242045992,242045671,42042859,60.1877325,24.832678599999998,-2.7091486,-14.227549,-18.777224,0.1979316,0.09433211,2.0861626e-07,0.4172713,0.026684042,-0.093691394,0.021776598,-0.025199575,0.050895337,0.014763279,0.49773353,-0.6459946,-0.79177415,-1.9446528,0.0010005395,0.1680809,-0.03770409,6.1336505e-05,-9.696816,15.9548855,0.24897517,0.22817895,0.11055827,0.06487707,inf,inf,inf,inf,1,1,1,1,3,2,3,2,3,1,1,1,0,0,0
242545969,242545671,42042859,60.1877325,24.832678599999998,-2.607566,-14.216696,-18.748259,0.1979316,0.09433211,2.0861626e-07,0.041332975,0.0005473066,-0.056033045,0.052817836,-0.025199575,0.050895337,0.014763279,-0.2676998,0.47992915,1.2944622,-1.9289211,0.0009794761,0.18668932,-0.03770409,6.0923016e-05,-9.696816,15.9259205,0.24861908,0.22814143,0.11176193,0.064897664,inf,inf,inf,inf,1,1,1,1,3,2,3,2,3,1,1,1,0,0,0
243045944,243045671,42042859,60.1877325,24.832678599999998,-2.6612027,-14.214111,-18.748959,0.1979316,0.09433211,2.0861626e-07,-0.18850827,0.0064262436,-0.09874329,-0.0062945,-0.025199575,0.050895337,0.014763279,0.25727454,1.8481212,-0.22973213,-1.95378,0.00095185183,0.16360155,-0.03770409,6.072657e-05,-9.696816,15.9266205,0.24827686,0.2276203,0.11164187,0.06485506,inf,inf,inf,inf,1,1,1,1,3,2,3,2,3,1,1,1,0,0,0
243545982,243545671,42042859,60.1877325,24.832678599999998,-3.0123367,-14.211712,-18.798168,0.1979316,0.09433211,2.0861626e-07,-1.2969875,-0.013554958,-0.1432001,-0.06061977,-0.025199575,0.050895337,0.014763279,-2.6458874,-0.55603653,-0.057465777,-1.9447783,0.0009210819,0.15210396,-0.03770409,6.0671213e-05,-9.696816,15.97583,0.24793877,0.22708815,0.114049815,0.064877585,inf,inf,inf,inf,1,1,1,1,3,2,3,2,3,1,1,1,0,0,0
244045988,244045671,42042859,60.1877325,24.832678599999998,-3.8660548,-14.20866,-18.818731,0.1979316,0.09433211,2.0861626e-07,-1.8589787,0.0168926,-0.15117465,-0.07404461,-0.025199575,0.050895337,0.014763279,0.9803256,-0.20427671,-1.4273064,-1.9355986,0.0008338117,0.18115874,-0.03770409,6.112571e-05,-9.696816,15.996393,0.24766433,0.22703764,0.11723289,0.06502135,inf,inf,inf,inf,1,1,1,1,3,2,3,2,3,1,1,1,0,0,0
244545965,244545672,42042859,60.1877325,24.832678599999998,-4.7773557,-14.18779,-18.865059,0.1979316,0.09433211,2.0861626e-07,-1.624721,0.058932196,-0.1102491,-0.045911882,-0.025199575,0.050895337,0.014763279,3.2653775,1.1181008,-0.16459672,-1.9392648,0.0007842082,0.17977878,-0.03770409,6.1753344e-05,-9.696816,16.04272,0.24741344,0.2265156,0.11172374,0.06485003,inf,inf,inf,inf,1,1,1,1,3,2,3,2,3,1,1,1,0,0,0
245045947,245045671,42042859,60.1877325,24.832678599999998,-5.4797354,-14.158279,-18.889084,0.1979316,0.09433211,2.0861626e-07,-1.0408399,0.074756734,-0.07526756,-0.018375024,-0.025199575,0.050895337,0.014763279,-0.46928966,-0.6026678,1.0588719,-1.9301181,0.00078538724,0.18902859,-0.03770409,6.209186e-05,-9.696816,16.066746,0.24716179,0.22599682,0.10835307,0.064662464,inf,inf,inf,inf,1,1,1,1,3,2,3,2,3,1,1,1,0,0,0
245545957,245545671,42042859,60.1877325,24.832678599999998,-5.864609,-14.13207,-18.885592,0.1979316,0.09433211,2.0861626e-07,-0.45645082,-0.006146115,-0.03566283,0.024992857,-0.025199575,0.050895337,0.014763279,1.2419271,0.5516638,-1.1746066,-1.9447044,0.0007900257,0.17424731,-0.03770409,6.1880026e-05,-9.696816,16.063253,0.24684599,0.22593266,0.10963602,0.06462974,inf,inf,inf,inf,1,1,1,1,3,2,3,2,3,1,1,1,0,0,0
246045962,246045671,42042859,60.1877325,24.832678599999998,-5.981747,-14.137411,-18.875746,0.1979316,0.09433211,2.0861626e-07,-0.04341584,-0.062678926,-0.06217295,2.5947083e-05,-0.025199575,0.050895337,0.014763279,-0.6861098,-0.7732226,-0.9562226,-1.9589969,0.00077249255,0.15866084,-0.03770409,6.135901e-05,-9.696816,16.053408,0.24653573,0.22541721,0.11180971,0.06461884,inf,inf,inf,inf,1,1,1,1,3,2,3,2,3,1,1,1,0,0,0
246545968,246545671,42042859,60.1877325,24.832678599999998,-5.933003,-14.173406,-18.87469,0.1979316,0.09433211,2.0861626e-07,0.26060608,-0.088340975,-0.03192348,0.03145592,-0.025199575,0.050895337,0.014763279,2.4021323,-0.497451,-1.0804715,-1.9579897,0.0007439767,0.1588204,-0.03770409,6.083796e-05,-9.696816,16.052351,0.24623628,0.22491407,0.112137645,0.06460023,inf,inf,inf,inf,1,1,1,1,3,2,3,2,3,1,1,1,0,0,0
247045972,247045671,42042859,60.1877325,24.832678599999998,-5.478205,-14.237334,-18.897842,0.1979316,0.09433211,2.0861626e-07,1.4669259,-0.10510693,-0.13155389,-0.06552745,-0.025199575,0.050895337,0.014763279,0.8441794,0.7629745,0.20197985,-1.9738908,0.0007031443,0.14501584,-0.03770409,6.038019e-05,-9.696816,16.075504,0.2459992,0.22443505,0.11651766,0.06469482,inf,inf,inf,inf,1,1,1,1,3,2,3,2,3,1,1,1,0,0,0
248045968,248045671,42042859,60.1877325,24.832678599999998,-3.9783323,-14.349452,-19.147482,0.1979316,0.09433211,2.0861626e-07,0.91342884,-0.028277827,-0.48492208,-0.41072038,-0.025199575,0.050895337,0.014763279,-2.420524,-2.3435652,1.7260557,-1.9762651,0.0006089498,0.14523429,-0.03770409,5.991105e-05,-9.696816,16.325144,0.24563429,0.22400089,0.11041732,0.064609215,inf,inf,inf,inf,1,1,1,1,3,2,3,2,3,1,1,1,0,0,0
248545993,248545671,42042859,60.1877325,24.832678599999998,-3.6797159,-14.347579,-19.37928,0.1979316,0.09433211,2.0861626e-07,0.13126934,0.048887525,-0.5590075,-0.4884336,-0.025199575,0.050895337,0.014763279,-2.2689688,-0.27118587,2.0302503,-1.9704907,0.00061389594,0.15076706,-0.03770409,5.9608374e-05,-9.696816,16.556942,0.24542303,0.2235682,0.10921702,0.064524114,inf,inf,inf,inf,1,1,1,1,3,2,3,2,3,1,1,1,0,0,0
249045951,249045671,42042859,60.1877325,24.832678599999998,-3.7481694,-14.321843,-19.642418,0.1979316,0.09433211,2.0861626e-07,-0.48268938,0.05393167,-0.6274058,-0.5617768,-0.025199575,0.050895337,0.014763279,-2.1115503,0.5981925,-0.42821634,-1.9321412,0.00061184476,0.19045873,-0.03770409,5.9301237e-05,-9.696816,16.82008,0.24520566,0.22360036,0.11071804,0.064594336,inf,inf,inf,inf,1,1,1,1,3,2,3,2,3,1,1,1,0,0,0
249545958,249545671,42042859,60.1877325,24.832678599999998,-4.1008573,-14.29981,-19.931906,0.1979316,0.09433211,2.0861626e-07,-0.9045855,0.080074206,-0.62120634,-0.5642595,-0.025199575,0.050895337,0.014763279,1.3726277,-0.39118737,0.42075944,-1.9284676,0.000599113,0.1948551,-0.03770409,5.9139882e-05,-9.696816,17.109568,0.24497579,0.22318439,0.11144713,0.06460704,inf,inf,inf,inf,1,1,1,1,3,2,3,2,3,1,1,1,0,0,0
250045965,250045671,42042859,60.1877325,24.832678599999998,-4.621745,-14.2673645,-20.21575,0.1979316,0.09433211,2.0861626e-07,-1.1001726,0.12660286,-0.5878259,-0.5386663,-0.025199575,0.050895337,0.014763279,-1.7090216,-0.075310834,2.0674472,-1.9344153,0.0005861114,0.18923774,-0.03770409,5.9242207e-05,-9.696816,17.393412,0.24482685,0.22279277,0.11075695,0.06458844,inf,inf,inf,inf,1,1,1,1,3,2,3,2,3,1,1,1,0,0,0
250545962,250545671,42042859,60.1877325,24.832678599999998,-5.1755004,-14.191033,-20.46734,0.1979316,0.09433211,2.0861626e-07,-0.9844177,0.19283225,-0.41768253,-0.37963182,-0.025199575,0.050895337,0.014763279,0.49272677,2.3555398,-0.012444894,-1.924507,0.0005822161,0.2001979,-0.03770409,5.951035e-05,-9.696816,17.645002,0.24468167,0.22284544,0.10885638,0.064549826,inf,inf,inf,inf,1,1,1,1,3,2,3,2,3,1,1,1,0,0,0
251045944,251045671,42042859,60.1877325,24.832678599999998,-5.6179576,-14.116391,-20.617939,0.1979316,0.09433211,2.0861626e-07,-0.63048095,0.14903204,-0.18488197,-0.1650642,-0.025199575,0.050895337,0.014763279,1.2166744,-0.11567403,0.5249297,-1.9286877,0.0005879789,0.19618194,-0.03770409,5.9925653e-05,-9.696816,17.7956,0.24454996,0.22246633,0.10744205,0.06447529,inf,inf,inf,inf,1,1,1,1,3,2,3,2,3,1,1,1,0,0,0
251545953,251545671,42042859,60.1877325,24.832678599999998,-5.8462734,-14.061979,-20.689882,0.1979316,0.09433211,2.0861626e-07,-0.23786858,0.09067846,-0.04533902,-0.0397254,-0.025199575,0.050895337,0.014763279,-0.9045113,1.2423825,1.0147659,-1.9356557,0.0005953911,0.18866849,-0.03770409,6.0314414e-05,-9.696816,17.867544,0.24438559,0.22210845,0.10763238,0.064428635,inf,inf,inf,inf,1,1,1,1,3,2,3,2,3,1,1,1,0,0,0
252045991,252045671,42042859,60.1877325,24.832678599999998,-5.899709,-14.045138,-20.699259,0.1979316,0.09433211,2.0861626e-07,0.019200658,0.039285317,-0.009872256,-0.0038070597,-0.025199575,0.050895337,0.014763279,-2.4672048,-2.2889783,0.8447861,-1.9440392,0.00059826137,0.18005775,-0.03770409,6.0631755e-05,-9.696816,17.87692,0.24426354,0.22178379,0.108376145,0.06441713,inf,inf,inf,inf,1,1,1,1,3,2,3,2,3,1,1,1,0,0,0
252545966,252545671,42042859,60.1877325,24.832678599999998,-5.8739996,-14.048447,-20.689934,0.1979316,0.09433211,2.0861626e-07,0.066007964,0.01749368,-0.0013175929,0.013926173,-0.025199575,0.050895337,0.014763279,1.5301135,1.4929715,-1.6423041,-1.968203,0.00059869897,0.15515445,-0.03770409,6.0840066e-05,-9.696816,17.867596,0.24414182,0.22192034,0.10856935,0.06445033,inf,inf,inf,inf,1,1,1,1,3,2,3,2,3,1,1,1,0,0,0
253045953,253045671,42042859,60.1877325,24.832678599999998,-5.8113747,-14.055617,-20.658138,0.1979316,0.09433211,2.0861626e-07,0.12982461,-0.0010917339,0.043539505,0.076606475,-0.025199575,0.050895337,0.014763279,0.7790122,-0.5621649,2.1093643,-1.9684261,0.00060129416,0.15509547,-0.03770409,6.1001985e-05,-9.696816,17.8358,0.24410214,0.22166304,0.10856843,0.06444996,inf,inf,inf,inf,1,1,1,1,3,2,3,2,3,1,1,1,0,0,0
253545973,253545671,42042859,60.1877325,24.832678599999998,-5.617819,-14.09337,-20.393627,0.1979316,0.09433211,2.0861626e-07,0.54715806,-0.04507351,0.6282855,0.67619693,-0.025199575,0.050895337,0.014763279,3.1178014,0.85260737,0.0027401343,-1.9607828,0.00060402474,0.16554968,-0.03770409,6.1340776e-05,-9.696816,17.57129,0.24407761,0.22143267,0.10756932,0.064476535,inf,inf,inf,inf,1,1,1,1,3,2,3,2,3,1,1,1,0,0,0
254045960,254045671,42042859,60.1877325,24.832678599999998,-5.297482,-14.153607,-20.03761,0.1979316,0.09433211,2.0861626e-07,0.60909134,-0.01710431,0.64845246,0.6982202,-0.025199575,0.050895337,0.014763279,0.94428194,-0.06766379,-1.1754715,-1.9237859,0.00060284423,0.20114644,-0.03770409,6.1865605e-05,-9.696816,17.215271,0.24408571,0.22169775,0.10814564,0.06453316,inf,inf,inf,inf,1,1,1,1,3,2,3,2,3,1,1,1,0,0,0
254545967,254545671,42042859,60.1877325,24.832678599999998,-5.0419674,-14.176903,-19.678682,0.1979316,0.09433211,2.0861626e-07,0.28071752,0.06962786,0.6110233,0.67408293,-0.025199575,0.050895337,0.014763279,-2.0310736,0.63954306,-0.9724835,-1.932132,0.0006063558,0.19074325,-0.03770409,6.2166655e-05,-9.696816,16.856344,0.24412473,0.22155438,0.10785301,0.06448705,inf,inf,inf,inf,1,1,1,1,3,2,3,2,3,1,1,1,0,0,0
255045948,255045671,42042859,60.1877325,24.832678599999998,-4.9882884,-14.157958,-19.334982,0.1979316,0.09433211,2.0861626e-07,-0.16440381,0.123632476,0.4668496,0.5558541,-0.025199575,0.050895337,0.014763279,-3.0133677,0.20061801,2.2541904,-1.9517698,0.00061321206,0.17289259,-0.03770409,6.223034e-05,-9.696816,16.512644,0.24424322,0.22146848,0.108517215,0.06447092,inf,inf,inf,inf,1,1,1,1,3,2,3,2,3,1,1,1,0,0,0
255545948,255545671,42042859,60.1877325,24.832678599999998,-5.107496,-14.138705,-19.0853,0.1979316,0.09433211,2.0861626e-07,-0.35716256,0.07251897,0.18956101,0.31458402,-0.025199575,0.050895337,0.014763279,2.3369641,2.5528708,3.3598642,-1.9764701,0.00061702717,0.15205598,-0.03770409,6.19884e-05,-9.696816,16.262962,0.244418,0.22187549,0.10975964,0.06452267,inf,inf,inf,inf,1,1,1,1,3,2,3,2,3,1,1,1,0,0,0
256045972,256045671,42042859,60.1877325,24.832678599999998,-5.2504287,-14.108843,-18.923199,0.1979316,0.09433211,2.0861626e-07,-0.33916897,0.040341225,-0.0014486024,0.15863636,-0.025199575,0.050895337,0.014763279,-0.9443025,-0.32985225,3.073994,-1.9878479,0.00062116334,0.14332029,-0.03770409,6.15234e-05,-9.696816,16.10086,0.24479209,0.22193123,0.10992015,0.064508826,inf,inf,inf,inf,1,1,1,1,3,2,3,2,3,1,1,1,0,0,0
256545970,256545672,42042859,60.1877325,24.832678599999998,-5.379702,-14.122321,-18.838326,0.1979316,0.09433211,2.0861626e-07,-0.2993962,-0.049019378,-0.111212626,0.07224473,-0.025199575,0.050895337,0.014763279,0.96284527,-3.0563488,1.427645,-1.9643996,0.00062781747,0.16511722,-0.03770409,6.112918e-05,-9.696816,16.015987,0.2459525,0.22227308,0.11059475,0.064649746,inf,inf,inf,inf,1,1,1,1,3,2,3,2,3,1,1,1,0,0,0
257545950,257545671,42042859,60.1877325,24.832678599999998,-5.612277,-14.167501,-18.782879,0.1979316,0.09433211,2.0861626e-07,-0.13677278,-0.0032395392,-0.09076146,0.07273072,-0.025199575,0.050895337,0.014763279,0.9062495,2.1363535,-2.5253506,-1.9239602,0.00064421905,0.20607324,-0.03770409,6.0559578e-05,-9.696816,15.960541,0.25004348,0.2241947,0.11169458,0.06520138,inf,inf,inf,inf,1,1,1,1,3,2,3,2,3,1,1,1,0,0,0
258045966,258045671,42042859,60.1877325,24.832678599999998,-5.657031,-14.157784,-18.802496,0.1979316,0.09433211,2.0861626e-07,0.04870257,0.08768198,-0.58143145,-0.43342876,-0.025199575,0.050895337,0.014763279,2.1636658,6.7021475,-6.3131475,-1.9277388,0.0006523118,0.2031715,-0.03770409,6.0142156e-05,-9.696816,15.980158,0.25007886,0.2242353,0.11039794,0.06501308,inf,inf,inf,inf,1,1,1,1,3,2,3,2,3,1,1,1,0,0,0
258545999,258545672,42042859,60.1877325,24.832678599999998,-5.573965,-14.049077,-19.03135,0.1979316,0.09433211,2.0861626e-07,0.2592982,0.34514004,-0.4996473,-0.35304722,-0.025199575,0.050895337,0.014763279,0.33322096,3.3843114,-0.4806244,-1.9526231,0.0006574341,0.1790823,-0.03770409,5.937612e-05,-9.696816,16.209011,0.2500645,0.22426271,0.11109957,0.064901434,inf,inf,inf,inf,1,1,1,1,3,2,3,2,3,1,1,1,0,0,0
259045946,259045671,42042859,60.1877325,24.832678599999998,-5.4541893,-13.826563,-19.130215,0.1979316,0.09433211,2.0861626e-07,0.26921895,0.6075674,-0.23693426,-0.10291172,-0.025199575,0.050895337,0.014763279,-0.80986434,0.006193449,0.2816638,-1.9569337,0.0006597276,0.17502657,-0.03770409,5.9131286e-05,-9.696816,16.307877,0.25007194,0.22475621,0.109436736,0.06485172,inf,inf,inf,inf,1,1,1,1,3,2,3,2,3,1,1,1,0,0,0
259545947,259545671,42042859,60.1877325,24.832678599999998,-5.3257103,-13.467907,-19.182228,0.1979316,0.09433211,2.0861626e-07,0.18085656,0.80598146,-0.040121514,0.056445286,-0.025199575,0.050895337,0.014763279,0.7615128,-0.076658666,-0.94265884,-1.9534824,0.0006612212,0.1789873,-0.03770409,5.9259655e-05,-9.696816,16.35989,0.2500049,0.22474277,0.10870495,0.064769916,inf,inf,inf,inf,1,1,1,1,3,2,3,2,3,1,1,1,0,0,0
260045973,260045671,42042859,60.1877325,24.832678599999998,-5.235149,-13.034704,-19.16202,0.1979316,0.09433211,2.0861626e-07,0.06872128,0.86880267,0.07443895,0.13611771,-0.025199575,0.050895337,0.014763279,-1.0675693,0.12911738,-2.0246649,-1.941912,0.0006644813,0.19050653,-0.03770409,5.9624086e-05,-9.696816,16.339682,0.24990511,0.22466695,0.1080097,0.06468732,inf,inf,inf,inf,1,1,1,1,3,2,3,2,3,1,1,1,0,0,0
260545961,260545671,42042859,60.1877325,24.832678599999998,-5.2405972,-12.5925255,-19.08378,0.1979316,0.09433211,2.0861626e-07,-0.072317116,0.84014374,0.16615896,0.20486158,-0.025199575,0.050895337,0.014763279,-0.54860276,0.20460379,-0.35225618,-1.9673898,0.00067040086,0.16552423,-0.03770409,6.004839e-05,-9.696816,16.261442,0.24975494,0.22499041,0.107544586,0.06464826,inf,inf,inf,inf,1,1,1,1,3,2,3,2,3,1,1,1,0,0,0
261045945,261045671,42042859,60.1877325,24.832678599999998,-5.305432,-12.182155,-18.984888,0.1979316,0.09433211,2.0861626e-07,-0.21065043,0.78997225,0.25670016,0.28518486,-0.025199575,0.050895337,0.014763279,0.9733756,-0.61084026,2.4319673,-1.9884762,0.0006776547,0.1425735,-0.03770409,6.041361e-05,-9.696816,16.16255,0.24961431,0.22481693,0.10776633,0.06457389,inf,inf,inf,inf,1,1,1,1,3,2,3,2,3,1,1,1,0,0,0
261545950,261545671,42042859,60.1877325,24.832678599999998,-5.4609795,-11.759728,-18.869944,0.1979316,0.09433211,2.0861626e-07,-0.38109475,0.7316952,0.20048967,0.22779228,-0.025199575,0.050895337,0.014763279,2.141681,-0.48715836,0.33754092,-1.9471661,0.0006846494,0.18798487,-0.03770409,6.0725943e-05,-9.696816,16.047606,0.2494452,0.22459693,0.108178124,0.064519346,inf,inf,inf,inf,1,1,1,1,3,2,3,2,3,1,1,1,0,0,0
262045962,262045671,42042859,60.1877325,24.832678599999998,-5.6436176,-11.413417,-18.79739,0.1979316,0.09433211,2.0861626e-07,-0.3101519,0.52081245,0.041665427,0.07691056,-0.025199575,0.050895337,0.014763279,2.0546184,-2.1232142,1.2718012,-1.9472238,0.00069072127,0.1914423,-0.03770409,6.08403e-05,-9.696816,15.975052,0.24933329,0.22481884,0.10883377,0.06452989,inf,inf,inf,inf,1,1,1,1,3,2,3,2,3,1,1,1,0,0,0
262545963,262545671,42042859,60.1877325,24.832678599999998,-5.753312,-11.211257,-18.763737,0.1979316,0.09433211,2.0861626e-07,-0.13734159,0.26060084,-0.002109694,0.047261436,-0.025199575,0.050895337,0.014763279,0.97247845,0.8687717,0.32100064,-1.9318489,0.00069449213,0.20576446,-0.03770409,6.0708946e-05,-9.696816,15.941399,0.2492558,0.22456367,0.10951927,0.064501725,inf,inf,inf,inf,1,1,1,1,3,2,3,2,3,1,1,1,0,0,0
263045949,263045671,42042859,60.1877325,24.832678599999998,-5.790898,-11.14431,-18.728132,0.1979316,0.09433211,2.0861626e-07,0.013251199,-0.0030534542,0.0076513616,0.061133154,-0.025199575,0.050895337,0.014763279,1.6283836,1.7999685,1.2235632,-1.9138258,0.0006938367,0.2232479,-0.03770409,6.0561106e-05,-9.696816,15.905794,0.24922194,0.22430858,0.10998116,0.06450069,inf,inf,inf,inf,1,1,1,1,3,2,3,2,3,1,1,1,0,0,0
263545980,263545671,42042859,60.1877325,24.832678599999998,-5.74845,-11.195905,-18.709452,0.1979316,0.09433211,2.0861626e-07,0.12502445,-0.18475132,-0.028208513,0.022798993,-0.025199575,0.050895337,0.014763279,-1.881968,-1.8397,1.5030457,-1.8995779,0.00068951346,0.23437698,-0.03770409,6.0435726e-05,-9.696816,15.887114,0.24919172,0.22405025,0.11016287,0.06449834,inf,inf,inf,inf,1,1,1,1,3,2,3,2,3,1,1,1,0,0,0
264045961,264045671,42042859,60.1877325,24.832678599999998,-5.7011657,-11.269033,-18.722435,0.1979316,0.09433211,2.0861626e-07,0.08167405,-0.11344166,-0.12281258,-0.07903764,-0.025199575,0.050895337,0.014763279,3.588842,3.1872456,-4.0326085,-1.9120678,0.0006877982,0.22155838,-0.03770409,6.0340863e-05,-9.696816,15.900097,0.24922812,0.22428097,0.10947549,0.064529315,inf,inf,inf,inf,1,1,1,1,3,2,3,2,3,1,1,1,0,0,0
264545977,264545671,42042859,60.1877325,24.832678599999998,-5.638335,-11.4756775,-18.806583,0.1979316,0.09433211,2.0861626e-07,0.17734596,-0.7018705,-0.15824527,-0.11402121,-0.025199575,0.050895337,0.014763279,0.71888447,-2.4630044,-0.52750576,-1.9585669,0.0006897736,0.1776935,-0.03770409,6.017986e-05,-9.696816,15.984245,0.24928589,0.22407585,0.11015296,0.06453613,inf,inf,inf,inf,1,1,1,1,3,2,3,2,3,1,1,1,0,0,0
265045966,265045671,42042859,60.1877325,24.832678599999998,-5.578154,-11.943896,-18.827648,0.1979316,0.09433211,2.0861626e-07,0.11583492,-1.108564,-0.009824785,0.039455563,-0.025199575,0.050895337,0.014763279,-0.9924218,-3.7953193,1.0887152,-1.9676588,0.0006835325,0.16776001,-0.03770409,6.0239785e-05,-9.696816,16.00531,0.24938941,0.22390918,0.110092714,0.06457384,inf,inf,inf,inf,1,1,1,1,3,2,3,2,3,1,1,1,0,0,0
265545952,265545671,42042859,60.1877325,24.832678599999998,-5.5563307,-12.564925,-18.797283,0.1979316,0.09433211,2.0861626e-07,0.029089857,-1.2994707,-0.040763438,0.0055198814,-0.025199575,0.050895337,0.014763279,-1.8358812,2.4240618,0.9581899,-1.9622248,0.0006774179,0.16920592,-0.03770409,6.0562663e-05,-9.696816,15.974945,0.24948044,0.22421242,0.109550014,0.06463414,inf,inf,inf,inf,1,1,1,1,3,2,3,2,3,1,1,1,0,0,0
266045966,266045671,42042859,60.1877325,24.832678599999998,-5.598202,-13.232235,-18.793001,0.1979316,0.09433211,2.0861626e-07,-0.05424582,-1.288628,-0.06484208,-0.014705052,-0.025199575,0.050895337,0.014763279,0.671726,1.4864455,-2.4774709,-1.9557407,0.0006781203,0.17618981,-0.03770409,6.0814218e-05,-9.696816,15.970663,0.24956043,0.22406918,0.10883881,0.06460805,inf,inf,inf,inf,1,1,1,1,3,2,3,2,3,1,1,1,0,0,0
266545969,266545670,42042859,60.1877325,24.832678599999998,-5.6554146,-13.810352,-18.787798,0.1979316,0.09433211,2.0861626e-07,-0.050891086,-0.97329247,-0.08677209,-0.026131075,-0.025199575,0.050895337,0.014763279,0.7438277,1.5414008,-3.075,-1.9568721,0.0006846088,0.1755156,-0.03770409,6.0886676e-05,-9.696816,15.96546,0.24962611,0.22392797,0.10848158,0.06455459,inf,inf,inf,inf,1,1,1,1,3,2,3,2,3,1,1,1,0,0,0
267045953,267045671,42042859,60.1877325,24.832678599999998,-5.7118344,-14.187595,-18.787153,0.1979316,0.09433211,2.0861626e-07,-0.035538323,-0.5382781,-0.10123457,-0.03233855,-0.025199575,0.050895337,0.014763279,0.4308306,1.0043111,-2.5441082,-1.9673584,0.00068828755,0.16460194,-0.03770409,6.07129e-05,-9.696816,15.964815,0.24971187,0.22426796,0.10948235,0.064575925,inf,inf,inf,inf,1,1,1,1,3,2,3,2,3,1,1,1,0,0,0
267545948,267545671,42042859,60.1877325,24.832678599999998,-5.755836,-14.365555,-18.787882,0.1979316,0.09433211,2.0861626e-07,-0.055082407,-0.18017198,-0.12706518,-0.050232332,-0.025199575,0.050895337,0.014763279,-1.0226151,0.39260375,0.15091026,-1.9487158,0.000681526,0.18271323,-0.03770409,6.0412232e-05,-9.696816,15.965544,0.24980523,0.2241681,0.11063085,0.06456304,inf,inf,inf,inf,1,1,1,1,3,2,3,2,3,1,1,1,0,0,0
268045968,268045671,42042859,60.1877325,24.832678599999998,-5.7951827,-14.384756,-18.791393,0.1979316,0.09433211,2.0861626e-07,-0.0069976924,0.049747113,-0.10639236,-0.022519184,-0.025199575,0.050895337,0.014763279,0.5166599,0.34160665,-2.1497238,-1.938963,0.00066836743,0.19163674,-0.03770409,6.015055e-05,-9.696816,15.969055,0.24990092,0.22407791,0.11100639,0.06455112,inf,inf,inf,inf,1,1,1,1,3,2,3,2,3,1,1,1,0,0,0
268546006,268545671,42042859,60.1877325,24.832678599999998,-5.7994795,-14.316651,-18.796703,0.1979316,0.09433211,2.0861626e-07,0.030039959,0.15368342,-0.086131796,0.0024766303,-0.025199575,0.050895337,0.014763279,0.79873854,-1.6755947,0.39026594,-1.9521239,0.00065691775,0.1781607,-0.03770409,6.001063e-05,-9.696816,15.974365,0.24996698,0.22395582,0.110498205,0.0645153,inf,inf,inf,inf,1,1,1,1,3,2,3,2,3,1,1,1,0,0,0
269045942,269045671,42042859,60.1877325,24.832678599999998,-5.7995477,-14.183978,-18.798502,0.1979316,0.09433211,2.0861626e-07,0.046678245,0.40159208,-0.15106523,-0.06512946,-0.025199575,0.050895337,0.014763279,1.8350701,-1.7947041,0.21256118,-1.9055678,0.00065133447,0.22665259,-0.03770409,6.0007675e-05,-9.696816,15.976164,0.25002235,0.22428149,0.10979295,0.06453829,inf,inf,inf,inf,1,1,1,1,3,2,3,2,3,1,1,1,0,0,0
269545950,269545671,42042859,60.1877325,24.832678599999998,-5.7681017,-13.8223715,-18.820194,0.1979316,0.09433211,2.0861626e-07,0.11951888,0.84165204,-0.062814064,0.018489182,-0.025199575,0.050895337,0.014763279,0.37222594,1.7787204,1.6366658,-1.5522392,0.0006429135,0.57607603,-0.03770409,6.003021e-05,-9.696816,15.997856,0.2501025,0.2241562,0.110998474,0.06455775,inf,inf,inf,inf,1,1,1,1,3,2,3,2,3,1,1,1,0,0,0
270045994,270045671,42042859,60.1877325,24.832678599999998,-5.7405605,-13.394904,-18.812786,0.1979316,0.09433211,2.0861626e-07,0.14030145,0.7671026,-0.034583703,0.035327315,-0.025199575,0.050895337,0.014763279,1.8496486,-0.807832,1.5825553,-1.105283,0.0006370827,1.021151,-0.03770409,5.9931328e-05,-9.696816,15.990448,0.25020087,0.22403778,0.11019886,0.0645173,inf,inf,inf,inf,1,1,1,1,3,2,3,2,3,1,1,1,0,0,0
270545974,270545672,42042859,60.1877325,24.832678599999998,-5.7116036,-13.051261,-18.808357,0.1979316,0.09433211,2.0861626e-07,0.100328654,0.5576333,-0.061042584,0.0024121231,-0.025199575,0.050895337,0.014763279,-2.7403553,-0.00070945284,-0.09892598,-0.59706444,0.00064340385,1.5282881,-0.03770409,5.8474157e-05,-9.696816,15.986019,0.25025535,0.22435446,0.112358116,0.06451646,inf,inf,inf,inf,1,1,1,1,3,2,3,2,3,1,1,1,0,0,0
271045948,271045671,42042859,60.1877325,24.832678599999998,-5.6959214,-12.823482,-18.81214,0.1979316,0.09433211,2.0861626e-07,0.040536385,0.37827474,-0.08325687,-0.021778865,-0.025199575,0.050895337,0.014763279,-2.116588,-0.8384564,-1.1815379,-0.07027894,0.00065347797,2.0552425,-0.03770409,5.410546e-05,-9.696816,15.989801,0.25031844,0.2242095,0.11886315,0.064521596,inf,inf,inf,inf,1,1,1,1,3,2,3,2,3,1,1,1,0,0,0
272045959,272045671,42042859,60.1877325,24.832678599999998,-5.685363,-12.728335,-18.84883,0.1979316,0.09433211,2.0861626e-07,-0.024546478,0.11247625,-0.07836269,-0.016666338,-0.025199575,0.050895337,0.014763279,-0.4789615,0.6652073,0.25858453,0.90252596,0.00066831947,3.0257857,-0.03770409,3.837799e-05,-9.696816,16.026491,0.25081998,0.2244356,0.1324015,0.064716645,inf,inf,inf,inf,1,1,1,1,3,2,3,2,3,1,1,1,0,0,0
272545963,272545671,42042859,60.1877325,24.832678599999998,-5.649135,-12.754461,-18.852392,0.1979316,0.09433211,2.0861626e-07,-0.033972792,0.053707156,-0.08641051,-0.02363507,-0.025199575,0.050895337,0.014763279,-0.9331006,-0.14391606,-0.04024599,1.3819671,0.00067612674,-2.779977,-0.03770409,3.1008538e-05,-9.696816,16.030054,0.25096524,0.22429012,0.13310407,0.06468014,inf,inf,inf,inf,1,1,1,1,3,2,3,2,3,1,1,1,0,0,0
273045961,273045671,42042859,60.1877325,24.832678599999998,-5.6284986,-12.799639,-18.850103,0.1979316,0.09433211,2.0861626e-07,-0.060907822,0.03545316,-0.00930516,0.044648804,-0.025199575,0.050895337,0.014763279,-1.4289795,-0.23031884,1.8184615,1.8781004,0.0006847401,-2.284624,-0.03770409,2.5845296e-05,-9.696816,16.027765,0.25121224,0.22419463,0.13086097,0.06465266,inf,inf,inf,inf,1,1,1,1,3,2,3,2,3,1,1,1,0,0,0
274045945,274045671,42042859,60.1877325,24.832678599999998,-5.602647,-12.804572,-18.847166,0.1979316,0.09433211,2.0861626e-07,-0.037197195,0.055415187,-0.013126411,0.012567158,-0.025199575,0.050895337,0.014763279,-0.946507,1.3565637,0.7088607,2.796021,0.00070187764,-1.3666711,-0.03770409,2.1040767e-05,-9.696816,16.024828,0.25412634,0.22555935,0.12498509,0.06510688,inf,inf,inf,inf,1,1,1,1,3,2,3,2,3,1,1,1,0,0,0
274545967,274545671,42042859,60.1877325,24.832678599999998,-5.6219726,-12.780379,-18.834656,0.1979316,0.09433211,2.0861626e-07,-0.038630605,0.027173609,-0.018797802,0.011774126,-0.025199575,0.050895337,0.014763279,1.1583059,0.06934938,-0.8491943,-2.988714,0.0007094202,-0.8677678,-0.03770409,2.0132884e-05,-9.696816,16.012318,0.25538838,0.2261026,0.12110384,0.065277494,inf,inf,inf,inf,1,1,1,1,3,2,3,2,3,1,1,1,0,0,0
275045992,275045671,42042859,60.1877325,24.832678599999998,-5.6080384,-12.769234,-18.829817,0.1979316,0.09433211,2.0861626e-07,0.010937521,-0.028012171,0.0052260915,0.03201963,-0.025199575,0.050895337,0.014763279,-1.1886714,-0.5433667,-2.6571305,-2.4597092,0.00071601657,-0.33817592,-0.03770409,1.9818706e-05,-9.696816,16.007479,0.2570869,0.22694291,0.1179188,0.065556034,inf,inf,inf,inf,1,1,1,1,3,2,3,2,3,1,1,1,0,0,0
275545946,275545671,42042859,60.1877325,24.832678599999998,-5.591014,-12.793204,-18.832064,0.1979316,0.09433211,2.0861626e-07,0.054259986,-0.09502586,-0.03524561,-0.0118327355,-0.025199575,0.050895337,0.014763279,-0.5138068,-0.30615243,-0.53043234,-1.930534,0.00072139007,0.19149458,-0.03770409,1.9511612e-05,-9.696816,16.009726,0.2570413,0.22780973,0.11285148,0.06547312,inf,inf,inf,inf,1,1,1,1,3,2,3,2,3,1,1,1,0,0,0
276045946,276045671,42042859,60.1877325,24.832678599999998,-5.613438,-12.836641,-18.8217,0.1979316,0.09433211,2.0861626e-07,0.013822952,-0.020725919,0.008233128,0.038320985,-0.025199575,0.050895337,0.014763279,0.04057323,0.6204447,4.7305183,-1.4766002,0.0007263388,0.6469853,-0.03770409,1.9630597e-05,-9.696816,15.999361,0.25848863,0.22880208,0.1112703,0.06573257,inf,inf,inf,inf,1,1,1,1,3,2,3,2,3,1,1,1,0,0,0
276545966,276545671,42042859,60.1877325,24.832678599999998,-5.6331615,-12.883469,-18.796907,0.1979316,0.09433211,2.0861626e-07,0.03130755,0.0048514586,0.026861364,0.058121197,-0.025199575,0.050895337,0.014763279,-0.36864924,0.036559425,-0.8368189,-0.97257555,0.00073219894,1.1528126,-0.03770409,1.9735773e-05,-9.696816,15.974569,0.25969625,0.22971176,0.11042456,0.065893166,inf,inf,inf,inf,1,1,1,1,3,2,3,2,3,1,1,1,0,0,0
277045961,277045671,42042859,60.1877325,24.832678599999998,-5.6403584,-12.903073,-18.779997,0.1979316,0.09433211,2.0861626e-07,-0.014043246,0.0146675445,-0.011939139,0.017354058,-0.025199575,0.050895337,0.014763279,-0.9518478,0.08171685,-1.7461857,-0.4684142,0.0007394706,1.6585505,-0.03770409,1.96721e-05,-9.696816,15.957659,0.25962928,0.23054263,0.10920142,0.06576831,inf,inf,inf,inf,1,1,1,1,3,2,3,2,3,1,1,1,0,0,0
277545943,277545670,42042859,60.1877325,24.832678599999998,-5.6039357,-12.9374275,-18.76229,0.1979316,0.09433211,2.0861626e-07,0.10453003,0.011113856,-0.043679815,-0.007952949,-0.025199575,0.050895337,0.014763279,-4.3612633,1.802644,-3.677358,-0.10398557,0.00074874534,2.0244489,-0.03770409,1.9565838e-05,-9.696816,15.939951,0.25888896,0.23043492,0.10826592,0.065440275,inf,inf,inf,inf,1,1,1,1,3,2,3,2,3,1,1,1,0,0,0
278045940,278045671,42042859,60.1877325,24.832678599999998,-5.5429745,-12.976672,-18.781404,0.1979316,0.09433211,2.0861626e-07,0.1264608,0.022219284,-0.06400702,-0.03170591,-0.025199575,0.050895337,0.014763279,0.83683914,-0.58392084,2.222964,-0.032714467,0.00075855927,2.0963113,-0.03770409,1.9632542e-05,-9.696816,15.959066,0.25850356,0.23029777,0.10908739,0.06526339,inf,inf,inf,inf,1,1,1,1,3,2,3,2,3,1,1,1,0,0,0
278546024,278545697,42042859,60.1877325,24.832678599999998,-5.507104,-12.983178,-18.800344,0.1979316,0.09433211,2.0861626e-07,0.035289045,0.035212856,-0.031236583,-0.007414237,-0.025199575,0.050895337,0.014763279,1.3733057,1.660313,1.8343401,-0.078077435,0.00076920824,2.051342,-0.03770409,1.9953786e-05,-9.696816,15.978006,0.25843212,0.23016505,0.11022628,0.06519888,inf,inf,inf,inf,1,1,1,1,3,2,3,2,3,1,1,1,0,0,0
279045965,279045671,42042859,60.1877325,24.832678599999998,-5.501459,-12.954711,-18.814543,0.1979316,0.09433211,2.0861626e-07,0.013111212,0.11423909,0.00630271,0.017030057,-0.025199575,0.050895337,0.014763279,0.19589746,0.65311545,-0.66018647,-0.11383209,0.0007806134,2.0163045,-0.03770409,2.0491321e-05,-9.696816,15.992205,0.25802904,0.23031291,0.110713966,0.06509118,inf,inf,inf,inf,1,1,1,1,3,2,3,2,3,1,1,1,0,0,0
279545949,279545671,42042859,60.1877325,24.832678599999998,-5.5020595,-12.899452,-18.81107,0.1979316,0.09433211,2.0861626e-07,-0.019511122,0.12268992,0.035713244,0.036895134,-0.025199575,0.050895337,0.014763279,0.51799226,-0.008011408,2.131307,-0.11030025,0.0007918426,2.020498,-0.03770409,2.1331682e-05,-9.696816,15.988731,0.25781527,0.22997504,0.11109521,0.06498972,inf,inf,inf,inf,1,1,1,1,3,2,3,2,3,1,1,1,0,0,0
280545981,280545671,42042859,60.1877325,24.832678599999998,-5.533515,-12.741273,-18.772345,0.1979316,0.09433211,2.0861626e-07,0.0008681212,0.09681694,-0.01465192,0.007141402,-0.025199575,0.050895337,0.014763279,-3.7378087,-1.5490717,-0.3890382,-0.1599677,0.0008154362,1.9730453,-0.03770409,2.3557765e-05,-9.696816,15.9500065,0.25758713,0.22975308,0.1111983,0.06487024,inf,inf,inf,inf,1,1,1,1,3,2,3,2,3,1,1,1,0,0,0
281045959,281045671,42042859,60.1877325,24.832678599999998,-5.5262237,-12.717069,-18.76156,0.1979316,0.09433211,2.0861626e-07,0.055342592,-0.010608383,-0.07782164,-0.04456943,-0.025199575,0.050895337,0.014763279,-2.6934125,0.68484074,-3.4065838,-0.15483144,0.0008274549,1.9788519,-0.03770409,2.4839519e-05,-9.696816,15.939222,0.25772595,0.22945985,0.11108665,0.064827755,inf,inf,inf,inf,1,1,1,1,3,2,3,2,3,1,1,1,0,0,0
281545954,281545671,42042859,60.1877325,24.832678599999998,-5.556496,-12.741298,-18.770151,0.1979316,0.09433211,2.0861626e-07,-0.02537044,-0.036439408,-0.058309305,-0.016329382,-0.025199575,0.050895337,0.014763279,-1.34231,1.5600997,-0.4874477,-0.17219776,0.00083937426,1.9608136,-0.03770409,2.6327492e-05,-9.696816,15.947813,0.25929627,0.22969776,0.1127584,0.06514107,inf,inf,inf,inf,1,1,1,1,3,2,3,2,3,1,1,1,0,0,0
282045949,282045671,42042859,60.1877325,24.832678599999998,-5.5774426,-12.749093,-18.7588,0.1979316,0.09433211,2.0861626e-07,-0.016134491,-0.028868327,-0.06495198,-0.0122043155,-0.025199575,0.050895337,0.014763279,-0.82381827,-0.44685173,0.100294314,-0.17500651,0.000852015,1.9585954,-0.03770409,2.7563055e-05,-9.696816,15.936462,0.25985414,0.23009713,0.1121439,0.06515708,inf,inf,inf,inf,1,1,1,1,3,2,3,2,3,1,1,1,0,0,0
282545971,282545671,42042859,60.1877325,24.832678599999998,-5.5752206,-12.762155,-18.763952,0.1979316,0.09433211,2.0861626e-07,-0.047093015,-0.046641592,-0.11467628,-0.05625334,-0.025199575,0.050895337,0.014763279,-2.565118,-1.1376102,-1.4253924,-0.16167274,0.0008650041,1.972355,-0.03770409,2.8913908e-05,-9.696816,15.941614,0.26133677,0.23033252,0.11315015,0.0653559,inf,inf,inf,inf,1,1,1,1,3,2,3,2,3,1,1,1,0,0,0
283045958,283045671,42042859,60.1877325,24.832678599999998,-5.613535,-12.829813,-18.792683,0.1979316,0.09433211,2.0861626e-07,-0.05467987,-0.1076092,-0.10704002,-0.049902465,-0.025199575,0.050895337,0.014763279,-0.11771812,-1.6761208,0.6673595,-0.15333143,0.0008783845,1.979505,-0.03770409,3.0239753e-05,-9.696816,15.970345,0.26384676,0.23101479,0.11499553,0.06575187,inf,inf,inf,inf,1,1,1,1,3,2,3,2,3,1,1,1,0,0,0
283545976,283545671,42042859,60.1877325,24.832678599999998,-5.6422453,-12.867164,-18.818838,0.1979316,0.09433211,2.0861626e-07,0.088763475,0.09381499,-0.083827764,-0.026146429,-0.025199575,0.050895337,0.014763279,2.2995977,1.272957,-5.088129,-0.19610977,0.0008920699,1.9375608,-0.03770409,3.1526906e-05,-9.696816,15.9965,0.26675257,0.23190978,0.1171605,0.06620994,inf,inf,inf,inf,1,1,1,1,3,2,3,2,3,1,1,1,0,0,0
284045948,284045671,42042859,60.1877325,24.832678599999998,-5.56304,-12.844709,-18.764256,0.1979316,0.09433211,2.0861626e-07,0.25673825,0.13405508,-0.023084337,0.030509252,-0.025199575,0.050895337,0.014763279,-1.3823067,5.553008,-1.0332147,-1.1883161,0.00090155646,0.945704,-0.03770409,3.2461612e-05,-9.696816,15.941917,0.26882944,0.23312216,0.117814094,0.066513285,inf,inf,inf,inf,1,1,1,1,3,2,3,2,3,1,1,1,0,0,0
284545969,284545671,42042859,60.1877325,24.832678599999998,-5.4529777,-12.745458,-18.820934,0.1979316,0.09433211,2.0861626e-07,0.32930726,0.18793407,-0.11990222,-0.08485259,-0.025199575,0.050895337,0.014763279,1.2950618,-7.3418155,-4.2609615,-1.8306025,0.00090385095,0.30266064,-0.03770409,3.3073557e-05,-9.696816,15.998596,0.27531478,0.23523724,0.12480687,0.06757247,inf,inf,inf,inf,1,1,1,1,3,2,3,2,3,1,1,1,0,0,0
285045989,285045671,42042859,60.1877325,24.832678599999998,-5.254268,-12.700666,-18.81952,0.1979316,0.09433211,2.0861626e-07,0.42111027,0.038266413,0.01937003,0.04793316,-0.025199575,0.050895337,0.014763279,0.052424468,3.3771064,0.8107116,-1.9756976,0.0009035651,0.15980986,-0.03770409,3.4346816e-05,-9.696816,15.997183,0.30290404,0.24682145,0.14221248,0.07053446,inf,inf,inf,inf,1,1,1,1,3,2,3,2,3,1,1,1,0,0,0
285545952,285545671,42042859,60.1877325,24.832678599999998,-5.0329576,-12.7174835,-18.877157,0.1979316,0.09433211,2.0861626e-07,0.4571251,-0.14222752,-0.14344154,-0.12744352,-0.025199575,0.050895337,0.014763279,-1.3509636,-2.0712073,2.9382033,-1.9813858,0.0009045889,0.15683596,-0.03770409,3.6666337e-05,-9.696816,16.05482,0.35447362,0.26618382,0.16971456,0.07443229,inf,inf,inf,inf,1,1,1,1,3,2,3,2,3,1,1,1,0,0,0
286045951,286045671,42042859,60.1877325,24.832678599999998,-4.7663693,-12.815221,-18.957249,0.1979316,0.09433211,2.0861626e-07,0.58683175,-0.29955494,-0.10469819,-0.09638782,-0.025199575,0.050895337,0.014763279,-0.4357609,-0.7936014,2.8236551,-1.935418,0.000905975,0.20160648,-0.03770409,3.9219172e-05,-9.696816,16.13491,0.4216246,0.28586388,0.19852082,0.07785576,inf,inf,inf,inf,1,1,1,1,3,2,3,2,3,1,1,1,0,0,1
286545962,286545671,42042859,60.1877325,24.832678599999998,-4.4487367,-13.011243,-18.9872,0.1979316,0.09433211,2.0861626e-07,0.6328023,-0.5095073,-0.0957003,-0.08209286,-0.025199575,0.050895337,0.014763279,0.10869943,-3.610592,0.48855525,-1.8745852,0.00090831274,0.2585314,-0.03770409,4.2085474e-05,-9.696816,16.164862,0.50526136,0.30591714,0.22839613,0.08088903,inf,inf,inf,inf,1,1,1,1,3,2,3,2,3,1,1,1,0,0,1
287045967,287045671,42042859,60.1877325,24.832678599999998,-4.13804,-13.246255,-19.034111,0.1979316,0.09433211,2.0861626e-07,0.58692867,-0.4813803,-0.11083827,-0.08591748,-0.025199575,0.050895337,0.014763279,0.2037045,-1.0556695,1.2231377,-1.8505752,0.0009117368,0.28136006,-0.03770409,4.5279456e-05,-9.696816,16.211773,0.6058106,0.32719663,0.25903443,0.08367869,inf,inf,inf,inf,1,1,1,1,3,2,3,2,3,1,1,1,0,0,1
287545956,287545671,42042859,60.1877325,24.832678599999998,-3.8686583,-13.455563,-19.068913,0.1979316,0.09433211,2.0861626e-07,0.50276697,-0.32517263,-0.1723565,-0.13279013,-0.025199575,0.050895337,0.014763279,2.151709,2.8891475,-1.5732715,-1.8737149,0.0009158651,0.25902557,-0.03770409,4.871074e-05,-9.696816,16.246574,0.72312725,0.34663084,0.28989196,0.0858883,inf,inf,inf,inf,1,1,1,1,3,2,3,2,3,1,1,1,0,0,1
288045946,288045671,42042859,60.1877325,24.832678599999998,-3.6441596,-13.589167,-19.11958,0.1979316,0.09433211,2.0861626e-07,0.40289557,-0.19719845,-0.15932433,-0.10802741,-0.025199575,0.050895337,0.014763279,-0.2565535,2.3779278,-0.5041892,-1.8923213,0.0009203404,0.24110167,-0.03770409,5.229487e-05,-9.696816,16.297241,0.8570814,0.36491555,0.3219615,0.087713026,inf,inf,inf,inf,1,1,1,1,3,2,3,2,3,1,1,1,0,0,1
288545967,288545671,42042859,60.1877325,24.832678599999998,-3.4746714,-13.662911,-19.182077,0.1979316,0.09433211,2.0861626e-07,0.28992477,-0.099800326,-0.27544147,-0.21797146,-0.025199575,0.050895337,0.014763279,0.20099738,2.8623748,-3.1647022,-1.9074023,0.00092515757,0.2277871,-0.03770409,5.6030593e-05,-9.696816,16.35974,1.0075066,0.383962,0.35464948,0.08949526,inf,inf,inf,inf,1,1,1,1,3,2,3,2,3,1,1,1,0,0,1
289045962,289045671,42042859,60.1877325,24.832678599999998,-3.3751087,-13.682563,-19.300041,0.1979316,0.09433211,2.0861626e-07,0.128433,-0.019727001,-0.2567285,-0.20130841,-0.025199575,0.050895337,0.014763279,0.9094053,1.7849963,1.3984597,-1.9330655,0.00093027804,0.20231935,-0.03770409,5.989489e-05,-9.696816,16.477703,1.174505,0.39926428,0.38836887,0.090670675,inf,inf,inf,inf,1,1,1,1,3,2,3,2,3,1,1,1,0,0,1
289545948,289545671,42042859,60.1877325,24.832678599999998,-3.3320332,-13.655679,-19.382917,0.1979316,0.09433211,2.0861626e-07,0.06393518,0.10274283,-0.24198745,-0.17852245,-0.025199575,0.050895337,0.014763279,1.3011607,0.686275,0.3537221,-1.9451374,0.00093567354,0.19134723,-0.03770409,6.388439e-05,-9.696816,16.56058,1.3578099,0.41264793,0.42206842,0.0915571,inf,inf,inf,inf,1,1,1,1,3,2,3,2,3,1,1,1,0,0,1
290045980,290045671,42042859,60.1877325,24.832678599999998,-3.297372,-13.556127,-19.445627,0.1979316,0.09433211,2.0861626e-07,0.16896458,0.28595826,-0.28669956,-0.23550136,-0.025199575,0.050895337,0.014763279,0.29376352,2.6712966,-2.7835007,-1.9771272,0.00094138074,0.16134532,-0.03770409,6.7990106e-05,-9.696816,16.62329,1.5575184,0.424095,0.45582405,0.09219718,inf,inf,inf,inf,0,1,0,1,3,2,3,2,3,1,1,1,0,0,1
290546011,290545671,42042859,60.1877325,24.832678599999998,-3.1253443,-13.356317,-19.65925,0.1979316,0.09433211,2.0861626e-07,0.5014793,0.44103733,-0.5032858,-0.45135853,-0.025199575,0.050895337,0.014763279,1.1748217,2.2443662,-0.060758933,-1.9936501,0.00094740145,0.14532524,-0.03770409,7.20861e-05,-9.696816,16.836912,1.774306,0.4370154,0.49629343,0.09303347,inf,inf,inf,inf,0,1,0,1,3,2,3,2,3,1,1,1,0,0,1
291045977,291045675,42042859,60.1877325,24.832678599999998,-2.8404186,-13.104693,-19.818892,0.1979316,0.09433211,2.0861626e-07,0.6604243,0.5007286,-0.41273874,-0.3285498,-0.025199575,0.050895337,0.014763279,2.7335827,-2.5817838,-1.0243428,-2.014604,0.0009536209,0.12486886,-0.03770409,7.627539e-05,-9.696816,16.996553,2.0090253,0.44499716,0.5332837,0.093296185,inf,inf,inf,inf,0,1,0,1,3,2,3,2,3,1,1,1,0,0,1
291545975,291545671,42042859,60.1877325,24.832678599999998,-2.494343,-12.817513,-19.93703,0.1979316,0.09433211,2.0861626e-07,0.7279247,0.5573682,-0.39421993,-0.27776727,-0.025199575,0.050895337,0.014763279,0.0061277635,-1.1328477,-0.78879315,-2.0348134,0.00096020615,0.10503127,-0.03770409,8.053535e-05,-9.696816,17.114693,2.2608361,0.4513153,0.57566774,0.09343431,inf,inf,inf,inf,0,1,0,1,3,2,3,2,3,1,1,1,0,0,1
292045954,292045671,42042859,60.1877325,24.832678599999998,-2.1154203,-12.513109,-20.05263,0.1979316,0.09433211,2.0861626e-07,0.81002915,0.57259506,-0.3932271,-0.24515063,-0.025199575,0.050895337,0.014763279,-0.56549174,-0.79507864,0.057691142,-2.0329444,0.00096710626,0.10758275,-0.03770409,8.487856e-05,-9.696816,17.230291,2.529846,0.46005714,0.8429134,0.0939168,inf,inf,inf,inf,0,1,0,1,3,2,3,2,3,1,1,1,0,0,1
292545968,292545671,42042859,60.1877325,24.832678599999998,-1.6644206,-12.197261,-20.163626,0.1979316,0.09433211,2.0861626e-07,0.9839078,0.5177558,-0.32711568,-0.17277993,-0.025199575,0.050895337,0.014763279,1.8967161,-0.60136664,0.6541593,-1.9972035,0.0009744293,0.14391622,-0.03770409,8.928594e-05,-9.696816,17.341288,2.816178,0.46374297,0.901513,0.093924314,inf,inf,inf,inf,0,1,0,1,3,2,3,2,3,1,1,1,0,0,1
293045968,293045671,42042859,60.1877325,24.832678599999998,-1.1484083,-11.945923,-20.26812,0.1979316,0.09433211,2.0861626e-07,1.1078359,0.3601973,-0.3433937,-0.18576694,-0.025199575,0.050895337,0.014763279,1.3584592,0.78487563,0.6073905,-1.9620231,0.0009820426,0.17949401,-0.03770409,9.3866955e-05,-9.696816,17.445782,3.1200721,0.46632224,1.0497086,0.09383915,inf,inf,inf,inf,0,1,0,1,3,2,3,2,3,1,1,1,0,0,1
293545952,293545671,42042859,60.1877325,24.832678599999998,-0.5745391,-11.78185,-20.355448,0.1979316,0.09433211,2.0861626e-07,1.2067087,0.17982523,-0.36129636,-0.20391704,-0.025199575,0.050895337,0.014763279,1.3058778,3.204149,-4.727314,-1.9867136,0.0009901985,0.15530416,-0.03770409,9.8562385e-05,-9.696816,17.53311,3.441345,0.4721933,1.28299,0.09423741,inf,inf,inf,inf,0,1,0,1,3,2,3,2,3,1,1,1,0,0,1
294045955,294045671,42042859,60.1877325,24.832678599999998,0.055239066,-11.661764,-20.47193,0.1979316,0.09433211,2.0861626e-07,1.2996255,0.20509681,-0.291292,-0.14308731,-0.025199575,0.050895337,0.014763279,-1.0468267,0.31196907,1.5584913,-1.9874202,0.0009988,0.15485,-0.03770409,0.000103246086,-9.696816,17.649591,3.779918,0.47315893,1.3222266,0.094183885,inf,inf,inf,inf,0,1,0,1,3,2,3,2,3,1,1,1,0,0,1
294546157,294545671,42042859,60.1877325,24.832678599999998,0.7457562,-11.500954,-20.520931,0.1979316,0.09433211,2.0861626e-07,1.4373115,0.33305463,-0.27964324,-0.10890352,-0.025199575,0.050895337,0.014763279,-1.5589942,-0.30503488,2.1636634,-1.9651815,0.0010078753,0.17717603,-0.03770409,0.000107972344,-9.696816,17.698593,4.136134,0.47352746,1.5501194,0.09414871,inf,inf,inf,inf,0,1,0,1,3,2,3,2,3,1,1,1,0,0,1
295046187,295045671,42042859,60.1877325,24.832678599999998,1.4949194,-11.265072,-20.575022,0.1979316,0.09433211,2.0861626e-07,1.5590147,0.47275123,-0.36781844,-0.16536155,-0.025199575,0.050895337,0.014763279,3.354687,1.9072248,1.9519491,-1.9582552,0.0010173259,0.18423343,-0.03770409,0.00011274484,-9.696816,17.752684,4.5103455,0.4734357,1.9766767,0.09413355,inf,inf,inf,inf,0,1,0,1,3,2,3,2,3,1,1,1,0,0,1
295546132,295545671,42042859,60.1877325,24.832678599999998,2.2988787,-10.987032,-20.640497,0.1979316,0.09433211,2.0861626e-07,1.6389778,0.499888,-0.37213832,-0.14575474,-0.025199575,0.050895337,0.014763279,-0.18579173,-2.7442827,0.8712469,-1.9635165,0.0010271005,0.17910825,-0.03770409,0.00011753383,-9.696816,17.81816,4.9029493,0.47735536,2.3099198,0.09458481,inf,inf,inf,inf,0,1,0,1,3,2,3,2,3,1,1,1,0,0,1
296046124,296045671,42042859,60.1877325,24.832678599999998,3.1215456,-10.682472,-20.702547,0.1979316,0.09433211,2.0861626e-07,1.5230523,0.60369605,-0.38274097,-0.1398342,-0.025199575,0.050895337,0.014763279,-3.4940724,1.1386526,0.6842514,-1.9677677,0.0010373363,0.17442408,-0.03770409,0.0001223182,-9.696816,17.880209,5.3135843,0.4766525,2.4858224,0.09455946,inf,inf,inf,inf,0,1,0,1,3,2,3,2,3,1,1,1,0,0,1
297046164,297045672,42042859,60.1877325,24.832678599999998,3.3482049,-9.564674,-20.931713,0.1979316,0.09433211,2.0861626e-07,-1.1673392,1.7788709,-0.4304226,-0.20411754,-0.025199575,0.050895337,0.014763279,-1.5176982,1.9196956,-0.74526006,-1.9092523,0.0010596326,0.22854015,-0.03770409,0.00013286292,-9.696816,18.109375,6.187228,0.47907344,3.0160391,0.09617256,inf,inf,inf,inf,0,1,0,1,3,2,3,2,3,1,1,1,0,0,1
297546168,297545671,42042859,60.1877325,24.832678599999998,2.4392347,-8.824826,-21.126944,0.1979316,0.09433211,2.0861626e-07,-1.9957098,1.4465225,-0.37659493,-0.22623593,-0.025199575,0.050895337,0.014763279,-2.7213068,-2.0083473,3.5266216,-1.9480635,0.0010670249,0.19817215,-0.03770409,0.00013829829,-9.696816,18.304605,6.6439004,0.4779812,1.0348941,0.09751198,inf,inf,inf,inf,0,1,0,1,3,2,3,2,3,1,1,1,0,0,1
298546201,298545671,42042859,60.1877325,24.832678599999998,-0.051079705,-8.020023,-21.43891,0.1979316,0.09433211,2.0861626e-07,-2.7647243,0.6622457,0.03767444,0.028936284,-0.025199575,0.050895337,0.014763279,-1.5968343,-3.223502,1.0296283,-1.940986,0.0010716574,0.21457316,-0.03770409,0.00014833693,-9.696816,18.616571,7.592236,0.4805401,1.1050489,0.09884858,inf,inf,inf,inf,0,1,0,1,3,2,3,2,3,1,1,1,0,0,1
299046189,299045671,42042859,60.1877325,24.832678599999998,-1.4919078,-7.84213,-21.40645,0.1979316,0.09433211,2.0861626e-07,-2.9589393,0.31789684,0.26945227,0.23803991,-0.025199575,0.050895337,0.014763279,1.0693471,-0.80586773,-0.048929647,-1.933796,0.0010753087,0.22104043,-0.03770409,0.00015330574,-9.696816,18.584112,8.088845,0.47974977,1.1439035,0.09901338,inf,inf,inf,inf,0,1,0,1,3,2,3,2,3,1,1,1,0,0,1
299546182,299545671,42042859,60.1877325,24.832678599999998,-3.050667,-7.8420067,-21.286999,0.1979316,0.09433211,2.0861626e-07,-3.219557,0.006291086,0.24314286,0.22360249,-0.025199575,0.050895337,0.014763279,-1.4286588,-0.41718465,-1.3131553,-1.9340192,0.0010796927,0.21982436,-0.03770409,0.00015823987,-9.696816,18.46466,8.600606,0.4790119,1.1830164,0.09930281,inf,inf,inf,inf,0,1,0,1,3,2,3,2,3,1,1,1,0,0,1
300046269,300045671,42042859,60.1877325,24.832678599999998,-4.782699,-8.0071335,-21.095987,0.1979316,0.09433211,2.0861626e-07,-3.4791577,-0.34356475,0.28125677,0.32645118,-0.025199575,0.050895337,0.014763279,-2.9298832,-0.39571533,-0.17898771,-1.9810517,0.0010845824,0.17789267,-0.03770409,0.00016330791,-9.696816,18.27365,9.130054,0.478323,1.2228138,0.09967917,inf,inf,inf,inf,0,1,0,1,3,2,3,2,3,1,1,1,0,0,1
300546206,300545671,42042859,60.1877325,24.832678599999998,-6.648192,-8.258539,-20.849564,0.1979316,0.09433211,2.0861626e-07,-3.3440087,-0.08227137,0.27607423,0.39755544,-0.025199575,0.050895337,0.014763279,2.5291743,1.8372715,0.6921595,-2.0286374,0.0010908977,0.13272183,-0.03770409,0.0001677958,-9.696816,18.027225,9.671626,0.48214966,1.2658128,0.099829115,inf,inf,inf,inf,0,1,0,1,3,2,3,2,3,1,1,1,0,0,1
301046187,301045671,42042859,60.1877325,24.832678599999998,-8.42623,-8.361061,-20.628263,0.1979316,0.09433211,2.0861626e-07,-3.1570022,0.029304275,0.34388024,0.46552354,-0.025199575,0.050895337,0.014763279,2.9966383,1.1290878,-0.96964854,-2.0388596,0.0010980195,0.12294163,-0.03770409,0.00017150366,-9.696816,17.805925,10.225488,0.4813462,1.309903,0.09883882,inf,inf,inf,inf,0,1,0,1,3,2,3,2,3,1,1,1,0,0,1
301546400,301545671,42042859,60.1877325,24.832678599999998,-10.059027,-8.346959,-20.38056,0.1979316,0.09433211,2.0861626e-07,-2.8915374,0.09983466,0.584035,0.65832835,-0.025199575,0.050895337,0.014763279,-0.013522753,2.1545794,-0.70300347,-2.0343368,0.0011056134,0.12824523,-0.03770409,0.00017485037,-9.696816,17.558222,10.79479,0.48032033,1.3516327,0.09793445,inf,inf,inf,inf,0,1,0,1,3,2,3,2,3,1,1,1,0,0,1
302046173,302045671,42042859,60.1877325,24.832678599999998,-11.504613,-8.24817,-20.058075,0.1979316,0.09433211,2.0861626e-07,-2.5794284,0.31590512,0.8367566,0.8612069,-0.025199575,0.050895337,0.014763279,-0.3313031,-0.64222246,0.39312375,-2.0445623,0.0011138113,0.118552215,-0.03770409,0.00017823197,-9.696816,17.235737,11.38376,0.4835993,1.3954736,0.09760973,inf,inf,inf,inf,0,1,0,1,3,2,3,2,3,1,1,1,0,0,1
302546205,302545671,42042859,60.1877325,24.832678599999998,-12.779919,-8.129308,-19.650225,0.1979316,0.09433211,2.0861626e-07,-2.3207023,0.4922968,0.91552097,0.92469954,-0.025199575,0.050895337,0.014763279,-0.11931265,5.762811,5.1787963,-2.035462,0.0011223725,0.12831412,-0.03770409,0.00018151102,-9.696816,16.827887,11.990649,0.48214418,1.4399168,0.09704997,inf,inf,inf,inf,0,1,0,1,3,2,3,2,3,1,1,1,0,0,1
303046189,303045671,42042859,60.1877325,24.832678599999998,-13.96856,-7.8967414,-19.112156,0.1979316,0.09433211,2.0861626e-07,-2.1328793,0.5713755,1.2093451,1.2136927,-0.025199575,0.050895337,0.014763279,0.9059308,-2.8578548,-1.0237144,-2.0198832,0.0011311151,0.14432669,-0.03770409,0.00018458643,-9.696816,16.289818,12.613603,0.4806097,1.4810249,0.09670154,inf,inf,inf,inf,0,1,0,1,3,2,3,2,3,1,1,1,0,0,1
303546201,303545671,42042859,60.1877325,24.832678599999998,-15.057301,-7.6059127,-18.514929,0.1979316,0.09433211,2.0861626e-07,-1.9637687,0.68810976,1.1520798,1.1543753,-0.025199575,0.050895337,0.014763279,1.9909878,-2.153492,1.9686742,-2.0432322,0.001140865,0.12160482,-0.03770409,0.00018797601,-9.696816,15.692591,13.260891,0.48357868,1.5264252,0.096890666,inf,inf,inf,inf,0,1,0,1,3,2,3,2,3,1,1,1,0,0,1
304046179,304045671,42042859,60.1877325,24.832678599999998,-15.939,-7.290394,-17.945671,0.1979316,0.09433211,2.0861626e-07,-1.74088,0.9021403,1.0995184,1.1003242,-0.025199575,0.050895337,0.014763279,-0.17332917,2.6321383,-0.8914093,-2.0477931,0.0011512676,0.11689,-0.03770409,0.00019140824,-9.696816,15.123333,13.930125,0.48200142,1.573562,0.0968281,inf,inf,inf,inf,0,1,0,1,3,2,3,2,3,1,1,1,0,0,1
305045976,305045671,42042859,60.1877325,24.832678599999998,-17.100365,-6.576276,-16.785082,0.1979316,0.09433211,2.0861626e-07,-1.0654147,0.920512,1.1653616,1.1648071,-0.025199575,0.050895337,0.014763279,2.7749023,2.4773324,-1.510586,-2.0082777,0.0011741032,0.15774696,-0.03770409,0.00019845585,-9.696816,13.962744,15.335707,0.47883058,1.6714272,0.0966758,inf,inf,inf,inf,0,1,0,1,3,2,3,2,3,1,1,1,0,0,1
305546089,305545672,42042859,60.1877325,24.832678599999998,-17.543152,-6.1742015,-16.210632,0.1979316,0.09433211,2.0861626e-07,-0.8719557,0.88027346,1.1609312,1.1603363,-0.025199575,0.050895337,0.014763279,0.8980883,0.21416657,-2.7399054,-1.9987092,0.0011856108,0.16773397,-0.03770409,0.0002017337,-9.696816,13.388294,16.068108,0.4818039,1.7193756,0.09707435,inf,inf,inf,inf,0,1,0,1,3,2,3,2,3,1,1,1,0,0,1
306046054,306045671,42042859,60.1877325,24.832678599999998,-17.892239,-5.811493,-15.631046,0.1979316,0.09433211,2.0861626e-07,-0.6965771,0.9954101,1.1470705,1.1464627,-0.025199575,0.050895337,0.014763279,1.8227388,-0.5576946,4.0040874,-2.0113227,0.001197451,0.15546054,-0.03770409,0.00020491122,-9.696816,12.808708,16.820295,0.48034918,1.7671273,0.09712126,inf,inf,inf,inf,0,1,0,1,3,2,3,2,3,1,1,1,0,0,1
306545975,306545671,42042859,60.1877325,24.832678599999998,-18.12321,-5.4485583,-15.068874,0.1979316,0.09433211,2.0861626e-07,-0.5564911,1.0631697,1.0883931,1.0877359,-0.025199575,0.050895337,0.014763279,4.413404,4.005636,-1.3453209,-2.0084746,0.0012098672,0.1587143,-0.03770409,0.00020819699,-9.696816,12.246536,17.596508,0.47897613,1.8154513,0.09709914,inf,inf,inf,inf,0,1,0,1,3,2,3,2,3,1,1,1,0,0,1
307045949,307045671,42042859,60.1877325,24.832678599999998,-18.315994,-5.0073886,-14.526307,0.1979316,0.09433211,2.0861626e-07,-0.42127445,1.0426992,1.0556213,1.0550742,-0.025199575,0.050895337,0.014763279,-1.5911582,2.421261,-0.5207287,-2.049552,0.0012228293,0.11800749,-0.03770409,0.00021144329,-9.696816,11.703969,18.395245,0.4821601,1.8641726,0.097558595,inf,inf,inf,inf,0,1,0,1,3,2,3,2,3,1,1,1,0,0,1
307545967,307545671,42042859,60.1877325,24.832678599999998,-10.537192,-10.16491,-8.957397,7.7653837,-5.5215526,4.9729643,0.45786074,0.35411748,1.36245,1.3618163,0.74563396,-0.757486,0.43582165,1.0072944,-9.456153,-7.3916783,-2.056079,0.0012363045,0.11159774,-0.03770409,0.0002143424,-9.696816,11.108024,1.8390803,1.452336,0.3002742,0.31825078,inf,inf,inf,inf,1,1,1,1,4,3,4,3,3,1,1,1,0,0,0
308545951,308545671,42042859,60.1877325,24.832678599999998,-9.697394,-10.073943,-7.851401,7.7653837,-5.5215526,4.9729643,1.0553848,0.075639255,0.6050563,0.593216,0.74563396,-0.757486,0.43582165,0.6956311,-0.5869962,-4.0344667,-1.9918948,0.0011843143,0.18814011,-0.03770409,0.00018576908,-9.696816,10.0020275,0.74465525,0.5564889,0.14778717,0.13156709,inf,inf,inf,inf,1,1,1,1,4,3,4,3,3,1,1,1,0,0,0
309045962,309045671,42042859,60.1877325,24.832678599999998,-8.849035,-10.296782,-7.9416413,7.7653837,-5.5215526,4.9729643,2.4259694,-1.0386026,-0.9890042,-1.0014405,0.74563396,-0.757486,0.43582165,6.417343,1.5742215,-6.2925854,-1.9535319,0.0010695733,0.2239891,-0.03770409,0.00015451538,-9.696816,10.092268,0.6273312,0.46850973,0.18118261,0.11947543,inf,inf,inf,inf,1,1,1,1,4,3,4,3,3,1,1,1,0,0,0
309545966,309545671,42042859,60.1877325,24.832678599999998,-7.5546985,-11.017449,-8.679485,7.7653837,-5.5215526,4.9729643,3.1465776,-2.084519,-2.2187505,-2.1797943,0.74563396,-0.757486,0.43582165,3.0198994,-0.8750608,-0.7081384,-1.9222063,0.00088423723,0.2418158,-0.03770409,0.000121874655,-9.696816,10.8301115,0.55821365,0.41735655,0.20850678,0.11468123,inf,inf,inf,inf,1,1,1,1,4,3,4,3,3,1,1,1,0,0,0
310045971,310045671,42042859,60.1877325,24.832678599999998,-6.234018,-12.184233,-9.797722,7.7653837,-5.5215526,4.9729643,2.6663408,-2.312857,-2.8318615,-2.6622944,0.74563396,-0.757486,0.43582165,-0.9564897,2.546654,-1.1178436,-1.9657062,0.000725999,0.18507168,-0.03770409,8.762028e-05,-9.696816,11.948348,0.5105168,0.38367105,0.1877118,0.10647785,inf,inf,inf,inf,1,1,1,1,4,3,4,3,3,1,1,1,0,0,0
310545949,310545671,42042859,60.1877325,24.832678599999998,-5.067011,-13.336677,-10.878791,7.7653837,-5.5215526,4.9729643,1.9296064,-1.914753,-2.5813136,-2.2776794,0.74563396,-0.757486,0.43582165,-0.45146406,-0.09027298,1.8843575,-1.984258,0.00069964794,0.17336047,-0.03770409,6.921677e-05,-9.696816,13.029417,0.47618696,0.36227393,0.16941032,0.099311225,inf,inf,inf,inf,1,1,1,1,4,3,4,3,3,1,1,1,0,0,0
311045966,311045671,42042859,60.1877325,24.832678599999998,-4.0366716,-14.279198,-11.694391,7.7653837,-5.5215526,4.9729643,1.3462678,-1.4391066,-1.2809489,-1.0115774,0.74563396,-0.757486,0.43582165,-0.10033215,-0.38462147,2.850589,-1.9989256,0.00069516123,0.16358389,-0.03770409,5.887069e-05,-9.696816,13.845017,0.451887,0.3459113,0.16067907,0.094741605,inf,inf,inf,inf,1,1,1,1,4,3,4,3,3,1,1,1,0,0,0
312045945,312045671,42042859,60.1877325,24.832678599999998,-2.8177302,-15.183337,-11.57153,7.7653837,-5.5215526,4.9729643,0.38295835,-0.2827712,1.2978765,1.3321809,0.74563396,-0.757486,0.43582165,-2.37671,2.1874537,1.4536119,-1.966602,0.000689858,0.1975847,-0.03770409,6.0446662e-05,-9.696816,13.722157,0.49723655,0.35526627,0.19731177,0.09671898,inf,inf,inf,inf,1,1,1,1,4,3,4,3,3,1,1,1,0,0,0
312545954,312545672,42042859,60.1877325,24.832678599999998,-2.6881049,-15.216207,-11.0019455,7.7653837,-5.5215526,4.9729643,0.1910271,0.060947653,1.1586379,1.1639953,0.74563396,-0.757486,0.43582165,0.2565876,0.8743276,-2.0215113,-1.9506592,0.0006920936,0.21377869,-0.03770409,6.43901e-05,-9.696816,13.152572,0.5595557,0.36835498,0.23423412,0.09895015,inf,inf,inf,inf,1,1,1,1,4,3,4,3,3,1,1,1,0,0,1
313045961,313045671,42042859,60.1877325,24.832678599999998,-2.6113122,-15.154684,-10.409332,7.7653837,-5.5215526,4.9729643,0.16554846,0.11951051,1.2448258,1.2379031,0.74563396,-0.757486,0.43582165,-0.20177431,2.157504,-0.87202287,-1.9268728,0.00069407024,0.23605569,-0.03770409,6.843697e-05,-9.696816,12.559958,0.64401364,0.3824479,0.26635993,0.10043819,inf,inf,inf,inf,1,1,1,1,4,3,4,3,3,1,1,1,0,0,1
313545967,313545671,42042859,60.1877325,24.832678599999998,-2.566406,-15.128567,-9.833054,7.7653837,-5.5215526,4.9729643,0.07110729,-0.028394025,1.2985572,1.2673544,0.74563396,-0.757486,0.43582165,-0.6419255,-3.4372642,-0.19201654,-1.9238032,0.00069620146,0.23834853,-0.03770409,7.254783e-05,-9.696816,11.98368,0.7501247,0.39922535,0.29917887,0.10173052,inf,inf,inf,inf,1,1,1,1,4,3,4,3,3,1,1,1,0,0,1
314045946,314045671,42042859,60.1877325,24.832678599999998,-2.5814989,-15.10955,-9.253343,7.7653837,-5.5215526,4.9729643,-0.037669305,0.097069554,1.2467026,1.1791525,0.74563396,-0.757486,0.43582165,1.5583462,1.811254,-1.7387184,-1.9303898,0.00069877406,0.23198175,-0.03770409,7.669939e-05,-9.696816,11.403969,0.87692624,0.41314018,0.33330148,0.10241652,inf,inf,inf,inf,1,1,1,1,4,3,4,3,3,1,1,1,0,0,1
314545954,314545671,42042859,60.1877325,24.832678599999998,-2.6098278,-15.055695,-8.721185,7.7653837,-5.5215526,4.9729643,-0.00877737,0.13192967,1.2298596,1.1269865,0.74563396,-0.757486,0.43582165,1.369161,1.861309,1.775167,-1.9051648,0.0007017437,0.25633463,-0.03770409,8.087185e-05,-9.696816,10.871811,1.0242279,0.4259158,0.36880443,0.10263816,inf,inf,inf,inf,1,1,1,1,4,3,4,3,3,1,1,1,0,0,1
315045961,315045671,42042859,60.1877325,24.832678599999998,-2.6428714,-15.002412,-8.232684,7.7653837,-5.5215526,4.9729643,-0.061077934,0.075549945,1.1851816,1.0413566,0.74563396,-0.757486,0.43582165,-1.641305,1.6233497,-1.579071,-1.9241415,0.00070498895,0.23887134,-0.03770409,8.507258e-05,-9.696816,10.38331,1.1910597,0.44059622,0.40510353,0.102973714,inf,inf,inf,inf,1,1,1,1,4,3,4,3,3,1,1,1,0,0,1
315545966,315545671,42042859,60.1877325,24.832678599999998,-2.6819186,-14.984192,-7.765058,7.7653837,-5.5215526,4.9729643,-0.11307968,0.066807754,1.2357768,1.04766,0.74563396,-0.757486,0.43582165,0.937484,0.6270526,-0.16659814,-1.9907415,0.0007084908,0.1714175,-0.03770409,8.9276065e-05,-9.696816,9.915685,1.3765621,0.45037794,0.440634,0.102588765,inf,inf,inf,inf,1,1,1,1,4,3,4,3,3,1,1,1,0,0,1
316045943,316045671,42042859,60.1877325,24.832678599999998,-2.7621558,-14.926398,-7.296065,7.7653837,-5.5215526,4.9729643,-0.17053898,0.19722396,1.2723503,1.0395666,0.74563396,-0.757486,0.43582165,2.5813963,0.91998214,1.3747213,-1.9882072,0.0007124441,0.17425051,-0.03770409,9.348481e-05,-9.696816,9.4466915,1.5804449,0.45838922,0.4782014,0.10211799,inf,inf,inf,inf,1,1,1,1,4,3,4,3,3,1,1,1,0,0,1
316545981,316545671,42042859,60.1877325,24.832678599999998,-2.8614209,-14.850805,-6.8391747,7.7653837,-5.5215526,4.9729643,-0.30003753,0.1530273,1.3055927,1.0277784,0.74563396,-0.757486,0.43582165,-1.9302617,-2.853471,5.870673,-1.9678714,0.0007166418,0.19398345,-0.03770409,9.7692166e-05,-9.696816,8.989801,1.8026005,0.46469304,0.5933601,0.10142872,inf,inf,inf,inf,0,1,0,1,4,3,4,3,3,1,1,1,0,0,1
317045965,317045671,42042859,60.1877325,24.832678599999998,-3.1033962,-14.752437,-6.399283,7.7653837,-5.5215526,4.9729643,-0.7546061,0.36435258,1.3252896,0.99742395,0.74563396,-0.757486,0.43582165,-2.5251677,1.3274914,-3.7673962,-1.9519767,0.0007212969,0.20884906,-0.03770409,0.00010191517,-9.696816,8.54991,2.042602,0.47366735,0.6463478,0.10137337,inf,inf,inf,inf,0,1,0,1,4,3,4,3,3,1,1,1,0,0,1
317545970,317545671,42042859,60.1877325,24.832678599999998,-3.5455613,-14.571215,-5.9603662,7.7653837,-5.5215526,4.9729643,-0.92283565,0.4308418,1.3840879,1.0065678,0.74563396,-0.757486,0.43582165,-0.66904306,0.08381189,3.7705553,-1.9577494,0.0007264425,0.2044379,-0.03770409,0.000106143605,-9.696816,8.110992,2.3010855,0.47714493,0.67201716,0.10088331,inf,inf,inf,inf,0,1,0,1,4,3,4,3,3,1,1,1,0,0,1
318045961,318045670,42042859,60.1877325,24.832678599999998,-3.9472106,-14.423045,-5.524302,7.7653837,-5.5215526,4.9729643,-0.70664257,0.2840694,1.4012682,0.9804869,0.74563396,-0.757486,0.43582165,-0.9353958,-0.9121334,-0.5829391,-1.9731156,0.000731706,0.18929014,-0.03770409,0.00011023518,-9.696816,7.6749287,2.5764334,0.47936627,0.8412476,0.09988441,inf,inf,inf,inf,0,1,0,1,4,3,4,3,3,1,1,1,0,0,1
318545954,318545672,42042859,60.1877325,24.832678599999998,-4.23306,-14.329063,-5.00987,7.7653837,-5.5215526,4.9729643,-0.52658546,0.17455138,1.4296664,1.0166591,0.74563396,-0.757486,0.43582165,-1.8038491,2.5806456,2.0764458,-1.9703065,0.00073732197,0.1925044,-0.03770409,0.000114295704,-9.696816,7.1604967,2.8682418,0.4850377,0.90002453,0.09944417,inf,inf,inf,inf,0,1,0,1,4,3,4,3,3,1,1,1,0,0,1
319045987,319045703,42042859,60.1877325,24.832678599999998,-4.4086285,-14.272311,-4.54089,7.7653837,-5.5215526,4.9729643,-0.31275538,0.18356389,1.4215642,0.99411553,0.74563396,-0.757486,0.43582165,1.3004738,0.24379195,-0.17992228,-2.0155408,0.0007432975,0.14758645,-0.03770409,0.000118302676,-9.696816,6.691517,3.1766653,0.4852828,1.1326007,0.09861272,inf,inf,inf,inf,0,1,0,1,4,3,4,3,3,1,1,1,0,0,1
319545989,319545671,42042859,60.1877325,24.832678599999998,-4.511978,-14.187038,-4.007386,7.7653837,-5.5215526,4.9729643,-0.22895023,0.17301792,1.3552547,0.9793723,0.74563396,-0.757486,0.43582165,-0.7376599,2.7716756,-1.7024504,-2.03156,0.0007496994,0.13163178,-0.03770409,0.00012225981,-9.696816,6.1580124,3.502569,0.4848176,1.1546645,0.09791405,inf,inf,inf,inf,0,1,0,1,4,3,4,3,3,1,1,1,0,0,1
320045945,320045671,42042859,60.1877325,24.832678599999998,-4.6395926,-14.127098,-3.4776437,7.7653837,-5.5215526,4.9729643,-0.44872105,0.1680093,1.1986649,0.8875558,0.74563396,-0.757486,0.43582165,0.23384926,-1.5112076,-3.784993,-2.0095372,0.0007563167,0.15251777,-0.03770409,0.00012623525,-9.696816,5.62827,3.8461058,0.48848873,1.2045872,0.097849354,inf,inf,inf,inf,0,1,0,1,4,3,4,3,3,1,1,1,0,0,1
320545948,320545671,42042859,60.1877325,24.832678599999998,-4.9105406,-14.042218,-2.9911225,7.7653837,-5.5215526,4.9729643,-0.63335705,0.22621366,1.1886213,0.924012,0.74563396,-0.757486,0.43582165,-2.7552974,-3.558727,0.76178294,-1.9641116,0.0007634628,0.19751918,-0.03770409,0.0001302092,-9.696816,5.141749,4.207692,0.48714626,1.3369119,0.09743716,inf,inf,inf,inf,0,1,0,1,4,3,4,3,3,1,1,1,0,0,1
321045964,321045671,42042859,60.1877325,24.832678599999998,-5.1942387,-13.942456,-2.5074115,7.7653837,-5.5215526,4.9729643,-0.32062632,0.17020093,1.1172725,0.87586117,0.74563396,-0.757486,0.43582165,2.2378244,-2.2328923,-4.582856,-1.8758262,0.00077091064,0.2872955,-0.03770409,0.0001340358,-9.696816,4.658038,4.5861897,0.48554745,1.4528741,0.09694793,inf,inf,inf,inf,0,1,0,1,4,3,4,3,3,1,1,1,0,0,1
321545996,321545671,42042859,60.1877325,24.832678599999998,-5.293433,-13.823621,-2.088951,7.7653837,-5.5215526,4.9729643,-0.0740107,0.25771105,1.03854,0.7944718,0.74563396,-0.757486,0.43582165,2.2540326,6.023363,-4.8657665,-1.8830115,0.00077885424,0.28226784,-0.03770409,0.00013769453,-9.696816,4.2395773,4.9818907,0.48372325,1.544132,0.09653686,inf,inf,inf,inf,0,1,0,1,4,3,4,3,3,1,1,1,0,0,1
322045948,322045671,42042859,60.1877325,24.832678599999998,-5.2922873,-13.743695,-1.6523755,7.7653837,-5.5215526,4.9729643,0.11883477,0.13682202,1.0202779,0.8028934,0.74563396,-0.757486,0.43582165,1.2812811,-0.43621078,0.97523016,-1.9413558,0.0007869267,0.22427124,-0.03770409,0.00014137628,-9.696816,3.8030019,5.3951325,0.48639423,1.8121103,0.09670176,inf,inf,inf,inf,0,1,0,1,4,3,4,3,3,1,1,1,0,0,1
322545946,322545671,42042859,60.1877325,24.832678599999998,-5.174018,-13.623616,-1.2519765,7.7653837,-5.5215526,4.9729643,0.4427132,0.44730055,0.87570196,0.66207486,0.74563396,-0.757486,0.43582165,1.7538915,1.0972621,0.86528414,-1.968833,0.00079566234,0.19853343,-0.03770409,0.00014495011,-9.696816,3.402603,5.826349,0.48440978,2.1164258,0.09654549,inf,inf,inf,inf,0,1,0,1,4,3,4,3,3,1,1,1,0,0,1
323045980,323045671,42042859,60.1877325,24.832678599999998,-4.8964577,-13.33709,-1.0232939,7.7653837,-5.5215526,4.9729643,0.6107118,0.7076097,0.52768326,0.31467018,0.74563396,-0.757486,0.43582165,0.045801796,0.4061396,1.9523488,-2.028129,0.00080458197,0.13944939,-0.03770409,0.00014850812,-9.696816,3.1739202,6.27753,0.48245743,2.3038402,0.09652585,inf,inf,inf,inf,0,1,0,1,4,3,4,3,3,1,1,1,0,0,1
323545965,323545671,42042859,60.1877325,24.832678599999998,-4.5316186,-12.950604,-0.788085,7.7653837,-5.5215526,4.9729643,0.7988666,0.897198,0.34972516,0.20024595,0.74563396,-0.757486,0.43582165,2.5334234,2.1290903,-7.671348,-2.0236826,0.00081380806,0.143897,-0.03770409,0.00015202061,-9.696816,2.9387114,6.7487288,0.4851298,2.5233974,0.096979484,inf,inf,inf,inf,0,1,0,1,4,3,4,3,3,1,1,1,0,0,1
324045949,324045671,42042859,60.1877325,24.832678599999998,-4.0681133,-12.480147,-0.6857459,7.7653837,-5.5215526,4.9729643,0.9327656,1.0343975,0.23559603,0.14124288,0.74563396,-0.757486,0.43582165,-1.1717176,1.6592058,0.97779316,-1.995583,0.00082334,0.17192598,-0.03770409,0.00015545663,-9.696816,2.8363724,7.239475,0.483294,2.7602227,0.097017534,inf,inf,inf,inf,0,1,0,1,4,3,4,3,3,1,1,1,0,0,1
324545948,324545671,42042859,60.1877325,24.832678599999998,-3.590451,-11.955765,-0.5676949,7.7653837,-5.5215526,4.9729643,0.9758904,1.1263986,0.16251786,0.11063347,0.74563396,-0.757486,0.43582165,0.45884028,0.79760116,-1.3905005,-1.9616274,0.0008332123,0.20616527,-0.03770409,0.00015883837,-9.696816,2.7183213,7.748819,0.4815458,2.984514,0.09691589,inf,inf,inf,inf,0,1,0,1,4,3,4,3,3,1,1,1,0,0,1
325045960,325045671,42042859,60.1877325,24.832678599999998,-3.0893717,-11.384597,-0.46983236,7.7653837,-5.5215526,4.9729643,1.0702407,1.1637074,0.1981624,0.17134263,0.74563396,-0.757486,0.43582165,-0.37255532,-2.8568494,1.304063,-1.9715898,0.0008434698,0.19606468,-0.03770409,0.00016213133,-9.696816,2.6204588,8.276504,0.48442447,3.1732988,0.09734432,inf,inf,inf,inf,0,1,0,1,4,3,4,3,3,1,1,1,0,0,1
325545968,325545671,42042859,60.1877325,24.832678599999998,-2.5338686,-10.78326,-0.365362,7.7653837,-5.5215526,4.9729643,1.0640575,1.3023194,0.1660543,0.15288122,0.74563396,-0.757486,0.43582165,0.656846,-0.033581484,0.3087267,-1.9928979,0.0008540717,0.17458984,-0.03770409,0.00016536738,-9.696816,2.5159883,8.822246,0.48281285,3.4423566,0.09725835,inf,inf,inf,inf,0,1,0,1,4,3,4,3,3,1,1,1,0,0,1
326045959,326045671,42042859,60.1877325,24.832678599999998,-1.9976654,-10.12777,-0.28439924,7.7653837,-5.5215526,4.9729643,0.97477835,1.3707731,0.09602815,0.08994132,0.74563396,-0.757486,0.43582165,0.1639228,-0.37495753,2.1303258,-1.9945064,0.0008650926,0.17287369,-0.03770409,0.00016854884,-9.696816,2.4350257,9.386733,0.48127335,3.667758,0.09717817,inf,inf,inf,inf,0,1,0,1,4,3,4,3,3,1,1,1,0,0,1
326545990,326545671,42042859,60.1877325,24.832678599999998,-1.513508,-9.557575,-0.22297539,7.7653837,-5.5215526,4.9729643,0.6829831,0.89456105,0.118905246,0.11662331,0.74563396,-0.757486,0.43582165,0.13253608,0.11281693,-0.5808542,-1.9901377,0.0008757146,0.1772614,-0.03770409,0.00017169982,-9.696816,2.373602,9.967292,0.47975948,3.9930809,0.09670139,inf,inf,inf,inf,0,1,0,1,4,3,4,3,3,1,1,1,0,0,1
327045969,327045671,42042859,60.1877325,24.832678599999998,-1.1153613,-9.287152,-0.18821724,7.7653837,-5.5215526,4.9729643,0.4728271,0.37817422,0.00369189,0.0032780617,0.74563396,-0.757486,0.43582165,-1.4016911,-1.546336,-2.9239202,-1.9886961,0.0008865,0.18096805,-0.03770409,0.00017484599,-9.696816,2.3388436,10.562941,0.48268393,4.5374675,0.09681929,inf,inf,inf,inf,0,1,0,1,4,3,4,3,3,1,1,1,0,0,1
327545966,327545671,42042859,60.1877325,24.832678599999998,-0.83206344,-9.240637,-0.12436976,7.7653837,-5.5215526,4.9729643,0.26760748,0.038577706,0.118977375,0.119400084,0.74563396,-0.757486,0.43582165,1.313316,2.1270478,-3.8679717,-1.9973137,0.0008978312,0.16977449,-0.03770409,0.00017796876,-9.696816,2.2749963,11.174751,0.4810505,4.976609,0.09678969,inf,inf,inf,inf,0,1,0,1,4,3,4,3,3,1,1,1,0,0,1
328045983,328045672,42042859,60.1877325,24.832678599999998,-0.66440797,-9.371941,-0.099468544,7.7653837,-5.5215526,4.9729643,0.08545574,-0.27158555,-0.012657623,-0.01195611,0.74563396,-0.757486,0.43582165,-1.8473237,-3.1457365,2.8300853,-1.9889147,0.000909767,0.18022336,-0.03770409,0.00018106132,-9.696816,2.250095,11.803226,0.4794557,5.374571,0.09686062,inf,inf,inf,inf,0,1,0,1,4,3,4,3,3,1,1,1,0,0,1
328545936,328545671,42042859,60.1877325,24.832678599999998,-0.6209225,-9.619861,-0.1175544,7.7653837,-5.5215526,4.9729643,-0.11150775,-0.4132414,-0.0673122,-0.06658791,0.74563396,-0.757486,0.43582165,0.9929993,-0.44816616,0.020573843,-2.0232568,0.0009221846,0.14313069,-0.03770409,0.00018408606,-9.696816,2.2681808,12.449092,0.48244318,5.761333,0.09748414,inf,inf,inf,inf,0,1,0,1,4,3,4,3,3,1,1,1,0,0,1
329045965,329045671,42042859,60.1877325,24.832678599999998,-0.6714256,-9.904454,-0.14405946,7.7653837,-5.5215526,4.9729643,-0.14220229,-0.37204528,-0.07505995,-0.074389555,0.74563396,-0.757486,0.43582165,1.3816333,1.4329464,-0.44009182,-1.9995453,0.00093523454,0.16808741,-0.03770409,0.00018700081,-9.696816,2.2946858,13.1128645,0.4810362,6.3435316,0.09743436,inf,inf,inf,inf,0,1,0,1,4,3,4,3,3,1,1,1,0,0,1
329545970,329545671,42042859,60.1877325,24.832678599999998,-0.7438457,-10.168453,-0.19690749,7.7653837,-5.5215526,4.9729643,-0.12885821,-0.46943384,-0.07257528,-0.07199055,0.74563396,-0.757486,0.43582165,-0.36955342,-1.3994806,-0.86696464,-2.0022492,0.0009488116,0.16726209,-0.03770409,0.00018975063,-9.696816,2.347534,13.795175,0.47973573,6.756998,0.09728317,inf,inf,inf,inf,0,1,0,1,4,3,4,3,3,1,1,1,0,0,1
330045940,330045671,42042859,60.1877325,24.832678599999998,-0.6971245,-10.485432,-0.26271334,7.7653837,-5.5215526,4.9729643,0.1140646,-0.7470173,-0.2532918,-0.25282508,0.74563396,-0.757486,0.43582165,-0.3907679,0.77272666,-0.79795367,-2.0146246,0.0009625295,0.15683754,-0.03770409,0.00019247431,-9.696816,2.4133399,14.495802,0.4829995,7.287887,0.09786211,inf,inf,inf,inf,0,1,0,1,4,3,4,3,3,1,1,1,0,0,1
330545947,330545671,42042859,60.1877325,24.832678599999998,-0.5457829,-10.927654,-0.36887932,7.7653837,-5.5215526,4.9729643,0.27324605,-0.84094995,-0.16968416,-0.16923428,0.74563396,-0.757486,0.43582165,0.003524549,0.73166394,2.090963,-2.0068727,0.0009767235,0.16691677,-0.03770409,0.00019512093,-9.696816,2.5195057,15.216139,0.48180786,7.919943,0.097844675,inf,inf,inf,inf,0,1,0,1,4,3,4,3,3,1,1,1,0,0,1
331045965,331045671,42042859,60.1877325,24.832678599999998,-0.2658306,-11.427859,-0.46099776,7.7653837,-5.5215526,4.9729643,0.6569055,-1.0095974,-0.19029307,-0.18996407,0.74563396,-0.757486,0.43582165,-0.7100062,1.6536679,0.21317956,-2.0202734,0.0009912723,0.15427548,-0.03770409,0.00019761382,-9.696816,2.6116242,15.956082,0.48065752,8.653728,0.098104686,inf,inf,inf,inf,0,1,0,1,4,3,4,3,3,1,1,1,0,0,1
331545989,331545671,42042859,60.1877325,24.832678599999998,0.14946948,-11.983719,-0.52261835,7.7653837,-5.5215526,4.9729643,0.7177483,-0.89639795,-0.077539936,-0.07709017,0.74563396,-0.757486,0.43582165,-0.5108264,-1.0831201,-1.4058703,-2.0006132,0.0010061715,0.173873,-0.03770409,0.00020014631,-9.696816,2.6732447,16.715994,0.47953412,9.491584,0.0977474,inf,inf,inf,inf,0,1,0,1,4,3,4,3,3,1,1,1,0,0,1
332045948,332045671,42042859,60.1877325,24.832678599999998,0.54258424,-12.461443,-0.5565615,7.7653837,-5.5215526,4.9729643,0.8896039,-0.8707767,-0.13728982,-0.13690916,0.74563396,-0.757486,0.43582165,-0.077375196,1.8011229,-0.734085,-1.9787383,0.0010213928,0.19588499,-0.03770409,0.00020263821,-9.696816,2.707188,17.495457,0.48289755,10.354733,0.09804426,inf,inf,inf,inf,0,1,0,1,4,3,4,3,3,1,1,1,0,0,1
332545950,332545671,42042859,60.1877325,24.832678599999998,0.98108655,-12.889701,-0.63244873,7.7653837,-5.5215526,4.9729643,0.9164287,-0.71096426,-0.13793312,-0.13758586,0.74563396,-0.757486,0.43582165,1.308922,-0.7834333,2.1750479,-2.0007164,0.0010368915,0.17395416,-0.03770409,0.00020508727,-9.696816,2.783075,18.295141,0.4817162,11.087479,0.09774497,inf,inf,inf,inf,0,1,0,1,4,3,4,3,3,1,1,1,0,0,1
333046113,333045671,42042859,60.1877325,24.832678599999998,1.4024326,-13.344789,-0.6665506,7.7653837,-5.5215526,4.9729643,0.8770511,-0.6420326,-0.0077607315,-0.007229484,0.74563396,-0.757486,0.43582165,-0.6054962,-1.4239049,-2.9447594,-1.9985689,0.0010496645,0.17693414,-0.03770409,0.00020664558,-9.696816,2.817177,19.09299,0.48046517,1.9112705,0.09737834,inf,inf,inf,inf,0,1,0,1,4,3,4,3,3,1,1,1,0,0,1
333546140,333545671,42042859,60.1877325,24.832678599999998,1.8516237,-13.701239,-0.6524734,7.7653837,-5.5215526,4.9729643,0.92220205,-1.0357431,0.022890976,0.02310703,0.74563396,-0.757486,0.43582165,-0.19044194,-2.8829007,-0.30095297,-2.0159285,0.0010624593,0.15422304,-0.03770409,0.00020846225,-9.696816,2.8030999,19.913431,0.48372597,1.9521719,0.0979121,inf,inf,inf,inf,0,1,0,1,4,3,4,3,3,1,1,1,0,0,1
334046064,334045671,42042859,60.1877325,24.832678599999998,2.318903,-14.07131,-0.6899386,7.7653837,-5.5215526,4.9729643,0.76072323,-1.1160113,-0.13037051,-0.13036846,0.74563396,-0.757486,0.43582165,0.7634997,0.25358167,-2.5234716,-1.9597619,0.0010760421,0.21041623,-0.03770409,0.00021077995,-9.696816,2.840565,20.761328,0.48250926,1.9941494,0.09790908,inf,inf,inf,inf,0,1,0,1,4,3,4,3,3,1,1,1,0,0,1
334546069,334545671,42042859,60.1877325,24.832678599999998,2.6369512,-14.609665,-0.6940624,7.7653837,-5.5215526,4.9729643,0.7389965,-1.2818435,0.06914895,0.069083914,0.74563396,-0.757486,0.43582165,0.47126597,1.407754,0.19213837,-1.9375955,0.0010890097,0.2318992,-0.03770409,0.00021233002,-9.696816,2.844689,21.609882,0.4812801,2.0321794,0.0978229,inf,inf,inf,inf,0,1,0,1,4,3,4,3,3,1,1,1,0,0,1
335045957,335045671,42042859,60.1877325,24.832678599999998,2.9398065,-15.199227,-0.70883834,7.7653837,-5.5215526,4.9729643,0.7373735,-1.4935908,-0.11524269,-0.1153999,0.74563396,-0.757486,0.43582165,0.79480165,2.5339084,-2.086835,-1.9557703,0.0011030239,0.21388808,-0.03770409,0.00021446942,-9.696816,2.8594646,22.489832,0.48461422,2.0751345,0.09837552,inf,inf,inf,inf,0,1,0,1,4,3,4,3,3,1,1,1,0,0,1
335545953,335545671,42042859,60.1877325,24.832678599999998,3.2420082,-16.021517,-0.78030795,7.7653837,-5.5215526,4.9729643,0.7646557,-1.6928003,-0.32165742,-0.32164112,0.74563396,-0.757486,0.43582165,0.46630916,4.610895,-3.4893658,-1.9465709,0.0011174381,0.2231403,-0.03770409,0.00021667383,-9.696816,2.9309344,23.390924,0.48345533,2.1189785,0.09838417,inf,inf,inf,inf,0,1,0,1,4,3,4,3,3,1,1,1,0,0,1
336045936,336045671,42042859,60.1877325,24.832678599999998,3.644109,-17.005028,-1.029958,7.7653837,-5.5215526,4.9729643,0.90136063,-1.7876644,-0.47111368,-0.47077018,0.74563396,-0.757486,0.43582165,-1.22289,-2.7412314,-0.2263865,-1.9207084,0.0011327841,0.24908498,-0.03770409,0.00021914826,-9.696816,3.1805844,24.321163,0.48232707,2.1696718,0.09837674,inf,inf,inf,inf,0,1,0,1,4,3,4,3,3,1,1,1,0,0,1
336545965,336545671,42042859,60.1877325,24.832678599999998,3.9247184,-18.028288,-1.0829649,7.7653837,-5.5215526,4.9729643,1.0811132,-1.7560805,-0.1263447,-0.12586597,0.74563396,-0.757486,0.43582165,0.85656655,1.4057046,-2.0340192,-1.8349513,0.0011477,0.33479553,-0.03770409,0.00022088477,-9.696816,3.2335913,25.256023,0.48116276,2.2077463,0.09806463,inf,inf,inf,inf,0,1,0,1,4,3,4,3,3,1,1,1,0,0,1
337045937,337045671,42042859,60.1877325,24.832678599999998,4.2981143,-19.003277,-1.1224451,7.7653837,-5.5215526,4.9729643,1.2037333,-1.7886139,0.07829887,0.078712165,0.74563396,-0.757486,0.43582165,-0.7456355,-1.8524721,4.1656775,-1.7666398,0.0011637266,0.40317565,-0.03770409,0.00022293227,-9.696816,3.2730715,26.221914,0.48450154,2.2562895,0.09834,inf,inf,inf,inf,0,1,0,1,4,3,4,3,3,1,1,1,0,0,1
337545952,337545671,42042859,60.1877325,24.832678599999998,4.647918,-19.908192,-1.0762395,7.7653837,-5.5215526,4.9729643,1.3133737,-1.8549846,0.24669035,0.24680056,0.74563396,-0.757486,0.43582165,1.2151781,0.86509603,0.20432678,-1.7850815,0.0011788185,0.38453212,-0.03770409,0.00022434288,-9.696816,3.2268658,27.18898,0.4832302,2.2981596,0.09817353,inf,inf,inf,inf,0,1,0,1,4,3,4,3,3,1,1,1,0,0,1
338045986,338045671,42042859,60.1877325,24.832678599999998,4.727045,-20.765709,-1.1445668,7.7653837,-5.5215526,4.9729643,0.50502396,-1.7587924,-0.17342648,-0.17372698,0.74563396,-0.757486,0.43582165,-1.2221768,-0.35922,-0.37324893,-1.6558557,0.0011946644,0.51965755,-0.03770409,0.00022593036,-9.696816,3.2951932,28.183004,0.4819022,2.3369741,0.09762355,inf,inf,inf,inf,0,1,0,1,4,3,4,3,3,1,1,1,0,0,1
338545936,338545671,42042859,60.1877325,24.832678599999998,4.332233,-21.301218,-1.2095226,7.7653837,-5.5215526,4.9729643,0.6136609,-1.6551467,-0.13833182,-0.1395043,0.74563396,-0.757486,0.43582165,3.3595126,-0.99354005,-0.59914905,-1.6817563,0.0012111245,0.46544585,-0.03770409,0.00022751311,-9.696816,3.360149,29.203373,0.4849805,2.3717299,0.097731605,inf,inf,inf,inf,0,1,0,1,4,3,4,3,3,1,1,1,0,0,1
339545950,339545671,42042859,60.1877325,24.832678599999998,4.038398,-23.194542,-1.3590451,7.7653837,-5.5215526,4.9729643,0.4255216,-1.7496628,-0.1693221,-0.16977587,0.74563396,-0.757486,0.43582165,0.3140487,1.272246,0.6000547,-1.6800501,0.0012433961,0.46656033,-0.03770409,0.00023092615,-9.696816,3.5096717,31.282919,0.48196024,2.4650042,0.09723742,inf,inf,inf,inf,0,1,0,1,4,3,4,3,3,1,1,1,0,0,1
340045955,340045671,42042859,60.1877325,24.832678599999998,3.741352,-24.14287,-1.4352641,7.7653837,-5.5215526,4.9729643,0.38634074,-1.8075547,-0.15460694,-0.15492712,0.74563396,-0.757486,0.43582165,0.47321582,-0.0012679409,0.72471106,-1.6802562,0.0012608106,0.4663431,-0.03770409,0.00023295486,-9.696816,3.5858905,32.364803,0.48500526,2.5096927,0.097471595,inf,inf,inf,inf,0,1,0,1,4,3,4,3,3,1,1,1,0,0,1
340545937,340545671,42042859,60.1877325,24.832678599999998,3.4798403,-25.055325,-1.5077966,7.7653837,-5.5215526,4.9729643,0.35071224,-1.8568915,-0.12995024,-0.13021593,0.74563396,-0.757486,0.43582165,1.382411,-2.3199027,-0.083562925,-1.6921448,0.001276938,0.45438805,-0.03770409,0.0002343106,-9.696816,3.658423,33.444023,0.48346773,2.551927,0.097263746,inf,inf,inf,inf,0,1,0,1,4,3,4,3,3,1,1,1,0,0,1
341046063,341045672,42042859,60.1877325,24.832678599999998,3.2391217,-25.956518,-1.5744128,7.7653837,-5.5215526,4.9729643,0.3283407,-1.8918853,-0.124440655,-0.12469005,0.74563396,-0.757486,0.43582165,-1.5647148,1.2324629,3.100356,-1.6883824,0.0012931679,0.45803896,-0.03770409,0.00023558753,-9.696816,3.7250392,34.540894,0.4819336,2.593639,0.09706885,inf,inf,inf,inf,0,1,0,1,4,3,4,3,3,1,1,1,0,0,1
341546087,341545671,42042859,60.1877325,24.832678599999998,2.9811108,-26.844692,-1.6396097,7.7653837,-5.5215526,4.9729643,0.28724915,-1.9317157,-0.12940046,-0.12965052,0.74563396,-0.757486,0.43582165,-1.8045306,-1.2559986,-0.45215505,-1.688671,0.0013084337,0.457629,-0.03770409,0.00023640605,-9.696816,3.790236,35.64136,0.4849633,2.6340368,0.097336434,inf,inf,inf,inf,0,1,0,1,4,3,4,3,3,1,1,1,0,0,1
342046090,342045671,42042859,60.1877325,24.832678599999998,2.639575,-27.767248,-1.6995841,7.7653837,-5.5215526,4.9729643,0.2542505,-1.9713997,-0.119997256,-0.12022311,0.74563396,-0.757486,0.43582165,0.4903684,-0.12845597,-0.5394356,-1.6881568,0.0013240192,0.4580295,-0.03770409,0.00023735456,-9.696816,3.8502107,36.76372,0.48345003,2.6746628,0.09715452,inf,inf,inf,inf,0,1,0,1,4,3,4,3,3,1,1,1,0,0,1
342546065,342545671,42042859,60.1877325,24.832678599999998,2.2643428,-28.723625,-1.7550038,7.7653837,-5.5215526,4.9729643,0.20528644,-2.0149438,-0.1089164,-0.10910654,0.74563396,-0.757486,0.43582165,0.2565114,0.18332216,-0.34760702,-1.6885169,0.0013406591,0.45758927,-0.03770409,0.00023871154,-9.696816,3.90563,37.919167,0.48197082,2.7168522,0.09698151,inf,inf,inf,inf,0,1,0,1,4,3,4,3,3,1,1,1,0,0,1
343046091,343045671,42042859,60.1877325,24.832678599999998,1.9075193,-29.69329,-1.8045835,7.7653837,-5.5215526,4.9729643,0.16519389,-2.0592551,-0.092178464,-0.09233998,0.74563396,-0.757486,0.43582165,0.10882419,0.052936967,1.7996198,-1.6888019,0.0013574968,0.45723227,-0.03770409,0.00024010352,-9.696816,3.95521,39.09514,0.4804992,2.7590778,0.09681863,inf,inf,inf,inf,0,1,0,1,4,3,4,3,3,1,1,1,0,0,1
343545955,343545671,42042859,60.1877325,24.832678599999998,1.562852,-30.69619,-1.84855,7.7653837,-5.5215526,4.9729643,0.120160624,-2.1043882,-0.07375216,-0.07387489,0.74563396,-0.757486,0.43582165,-0.0060664434,0.01008168,0.7821297,-1.6893486,0.0013754538,0.45661613,-0.03770409,0.00024186863,-9.696816,3.9991765,40.3055,0.48357075,2.8031955,0.09712919,inf,inf,inf,inf,0,1,0,1,4,3,4,3,3,1,1,1,0,0,1
344045954,344045671,42042859,60.1877325,24.832678599999998,1.2340864,-31.702726,-1.8861654,7.7653837,-5.5215526,4.9729643,0.09619372,-2.129953,-0.07320002,-0.07330689,0.74563396,-0.757486,0.43582165,0.24474499,0.56522506,-1.1508876,-1.6927361,0.0013936904,0.45317882,-0.03770409,0.00024367606,-9.696816,4.036792,41.53767,0.48210227,2.8475406,0.096969984,inf,inf,inf,inf,0,1,0,1,4,3,4,3,3,1,1,1,0,0,1
344546072,344545671,42042859,60.1877325,24.832678599999998,0.9887177,-32.74643,-1.9238014,7.7653837,-5.5215526,4.9729643,0.0386221,-2.1860836,-0.07999161,-0.08005437,0.74563396,-0.757486,0.43582165,-2.3082108,1.4683139,1.5673889,-1.6940829,0.0014113337,0.4517215,-0.03770409,0.00024513417,-9.696816,4.0744276,42.778664,0.4806438,2.8905933,0.09681628,inf,inf,inf,inf,0,1,0,1,4,3,4,3,3,1,1,1,0,0,1
345046084,345045671,42042859,60.1877325,24.832678599999998,0.7557746,-33.760178,-1.9593704,7.7653837,-5.5215526,4.9729643,0.016482605,-2.2391195,-0.072680406,-0.072747916,0.74563396,-0.757486,0.43582165,1.9921718,-1.269395,-0.70810634,-1.6941055,0.0014292327,0.45157206,-0.03770409,0.00024661055,-9.696816,4.109997,44.041412,0.48372245,2.9340973,0.0971482,inf,inf,inf,inf,0,1,0,1,4,3,4,3,3,1,1,1,0,0,1
345546083,345545671,42042859,60.1877325,24.832678599999998,0.5242969,-34.849327,-1.9955863,7.7653837,-5.5215526,4.9729643,-0.018952593,-2.2945004,-0.052486915,-0.05250884,0.74563396,-0.757486,0.43582165,-0.8759409,-0.4522292,0.29320848,-1.6937237,0.0014482344,0.45186764,-0.03770409,0.0002484313,-9.696816,4.1462126,45.338444,0.48227432,2.9794161,0.096995614,inf,inf,inf,inf,0,1,0,1,4,3,4,3,3,1,1,1,0,0,1
346046078,346045671,42042859,60.1877325,24.832678599999998,0.25955057,-35.882072,-2.018486,7.7653837,-5.5215526,4.9729643,-0.050009504,-2.3411736,-0.054078773,-0.054131836,0.74563396,-0.757486,0.43582165,1.7576048,-0.8577439,-1.3451295,-1.6948258,0.0014652372,0.45060107,-0.03770409,0.0002495113,-9.696816,4.169112,46.62551,0.4808401,3.0210218,0.09684952,inf,inf,inf,inf,0,1,0,1,4,3,4,3,3,1,1,1,0,0,1
346545939,346545671,42042859,60.1877325,24.832678599999998,0.005069372,-37.06261,-2.0484216,7.7653837,-5.5215526,4.9729643,-0.08180593,-2.387125,-0.063662075,-0.06361718,0.74563396,-0.757486,0.43582165,0.744369,0.27380347,2.3709116,-1.6951848,0.001485731,0.45017135,-0.03770409,0.00025171036,-9.696816,4.199048,47.980995,0.48394686,3.0679908,0.09718508,inf,inf,inf,inf,0,1,0,1,4,3,4,3,3,1,1,1,0,0,1
347045940,347045672,42042859,60.1877325,24.832678599999998,-0.28338742,-38.193405,-2.0765164,7.7653837,-5.5215526,4.9729643,-0.118450254,-2.4264817,-0.051869147,-0.05182597,0.74563396,-0.757486,0.43582165,-1.0134186,0.55820316,-0.69426584,-1.6948211,0.0015046081,0.45044097,-0.03770409,0.00025330947,-9.696816,4.227143,49.332558,0.482519,3.1128354,0.09704103,inf,inf,inf,inf,0,1,0,1,4,3,4,3,3,1,1,1,0,0,1
347545954,347545671,42042859,60.1877325,24.832678599999998,-0.57170045,-39.309937,-2.1098552,7.7653837,-5.5215526,4.9729643,-0.15147506,-2.4747837,-0.069935225,-0.0699292,0.74563396,-0.757486,0.43582165,0.9761554,0.19022688,1.7060345,-1.694115,0.0015240917,0.45106366,-0.03770409,0.00025505986,-9.696816,4.260482,50.71186,0.48110208,3.158106,0.096909866,inf,inf,inf,inf,0,1,0,1,4,3,4,3,3,1,1,1,0,0,1
348046106,348045671,42042859,60.1877325,24.832678599999998,-0.9062284,-40.393208,-2.143769,7.7653837,-5.5215526,4.9729643,-0.19267938,-2.5153651,-0.06495019,-0.06499446,0.74563396,-0.757486,0.43582165,-0.6929585,0.48793,-1.5465552,-1.6941197,0.0015415536,0.450931,-0.03770409,0.0002561466,-9.696816,4.2943954,52.0818,0.47969416,3.2007544,0.096776366,inf,inf,inf,inf,0,1,0,1,4,3,4,3,3,1,1,1,0,0,1
348545937,348545671,42042859,60.1877325,24.832678599999998,-1.2933184,-41.48182,-2.1750357,7.7653837,-5.5215526,4.9729643,-0.23567009,-2.554373,-0.056394815,-0.056472085,0.74563396,-0.757486,0.43582165,-0.017600177,-0.464117,2.3047879,-1.6944144,0.0015610175,0.45051545,-0.03770409,0.0002578561,-9.696816,4.325662,53.49952,0.48284793,3.2458727,0.09710833,inf,inf,inf,inf,0,1,0,1,4,3,4,3,3,1,1,1,0,0,1
349046061,349045671,42042859,60.1877325,24.832678599999998,-1.7448065,-42.58213,-2.202185,7.7653837,-5.5215526,4.9729643,-0.27945396,-2.5930986,-0.041063357,-0.041162986,0.74563396,-0.757486,0.43582165,-0.17441294,0.22513986,0.56372714,-1.6949954,0.0015798673,0.44985402,-0.03770409,0.00025933833,-9.696816,4.3528113,54.927624,0.4814916,3.2901788,0.09697993,inf,inf,inf,inf,0,1,0,1,4,3,4,3,3,1,1,1,0,0,1
349546081,349545671,42042859,60.1877325,24.832678599999998,-2.205045,-43.67063,-2.2239583,7.7653837,-5.5215526,4.9729643,-0.33399627,-2.6298702,-0.040120676,-0.040235188,0.74563396,-0.757486,0.43582165,-0.6852588,0.4251842,-0.4720563,-1.6956671,0.0015978188,0.4490565,-0.03770409,0.0002605211,-9.696816,4.3745847,56.362198,0.48013806,3.3333824,0.096846886,inf,inf,inf,inf,0,1,0,1,4,3,4,3,3,1,1,1,0,0,1
350046078,350045671,42042859,60.1877325,24.832678599999998,-2.6082134,-44.7679,-2.238558,7.7653837,-5.5215526,4.9729643,-0.36514315,-2.669895,-0.018734483,-0.018855749,0.74563396,-0.757486,0.43582165,0.12943456,0.6187166,-0.52972007,-1.6959077,0.001614977,0.44866407,-0.03770409,0.00026145217,-9.696816,4.3891845,57.80451,0.48329997,3.3752806,0.09718808,inf,inf,inf,inf,0,1,0,1,4,3,4,3,3,1,1,1,0,0,1
350546063,350545671,42042859,60.1877325,24.832678599999998,-3.0177412,-45.888004,-2.2471411,7.7653837,-5.5215526,4.9729643,-0.40825382,-2.7080393,-0.007856329,-0.007961392,0.74563396,-0.757486,0.43582165,-0.08782241,0.0046633873,-0.41964072,-1.6962711,0.0016328151,0.44812867,-0.03770409,0.0002625858,-9.696816,4.3977675,59.275505,0.48193988,3.4183443,0.09705399,inf,inf,inf,inf,0,1,0,1,4,3,4,3,3,1,1,1,0,0,1
351045939,351045671,42042859,60.1877325,24.832678599999998,-3.3996854,-47.095776,-2.2515824,7.7653837,-5.5215526,4.9729643,-0.44363365,-2.7548563,-0.00021529837,-0.0002679819,0.74563396,-0.757486,0.43582165,0.34386697,-0.34221265,2.8477764,-1.6966304,0.0016518127,0.44764578,-0.03770409,0.00026404328,-9.696816,4.402209,60.78223,0.48058173,3.4629583,0.09691495,inf,inf,inf,inf,0,1,0,1,4,3,4,3,3,1,1,1,0,0,1
351545951,351545671,42042859,60.1877325,24.832678599999998,-3.7894096,-48.42137,-2.2503076,7.7653837,-5.5215526,4.9729643,-0.48228744,-2.8036966,0.0011619148,0.0012008053,0.74563396,-0.757486,0.43582165,0.144845,0.10472979,-2.8605292,-1.6969781,0.0016746281,0.44724122,-0.03770409,0.0002665421,-9.696816,4.400934,62.363155,0.483753,3.5121882,0.097253755,inf,inf,inf,inf,0,1,0,1,4,3,4,3,3,1,1,1,0,0,1
352046084,352045671,42042859,60.1877325,24.832678599999998,-4.173154,-49.74855,-2.242685,7.7653837,-5.5215526,4.9729643,-0.5154706,-2.8502164,0.023242673,0.023310982,0.74563396,-0.757486,0.43582165,0.387821,0.32955992,0.9934073,-1.6977493,0.0016944151,0.44641158,-0.03770409,0.00026813286,-9.696816,4.3933115,63.92051,0.4823856,3.5577497,0.097111955,inf,inf,inf,inf,0,1,0,1,4,3,4,3,3,1,1,1,0,0,1
352546069,352545671,42042859,60.1877325,24.832678599999998,-4.553571,-50.99148,-2.2290022,7.7653837,-5.5215526,4.9729643,-0.551391,-2.8978765,0.042487983,0.042519085,0.74563396,-0.757486,0.43582165,-0.09476876,-0.7112058,0.69610083,-1.6981579,0.0017118962,0.44584018,-0.03770409,0.0002690761,-9.696816,4.3796287,65.464226,0.4810184,3.6002223,0.09697649,inf,inf,inf,inf,0,1,0,1,4,3,4,3,3,1,1,1,0,0,1
353046106,353045671,42042859,60.1877325,24.832678599999998,-4.959272,-52.25412,-2.20858,7.7653837,-5.5215526,4.9729643,-0.58441806,-2.9371955,0.045935884,0.04593625,0.74563396,-0.757486,0.43582165,-0.9602518,-0.2937629,-0.3537545,-1.6986943,0.0017309391,0.44518542,-0.03770409,0.0002704412,-9.696816,4.359206,67.04967,0.4796532,3.6448526,0.09683535,inf,inf,inf,inf,0,1,0,1,4,3,4,3,3,1,1,1,0,0,1
353546091,353545671,42042859,60.1877325,24.832678599999998,-5.359275,-53.52591,-2.1844826,7.7653837,-5.5215526,4.9729643,-0.6199303,-2.979863,0.05337376,0.053368036,0.74563396,-0.757486,0.43582165,-0.5595098,-0.37324825,-0.5494515,-1.699099,0.0017483368,0.44462493,-0.03770409,0.00027135172,-9.696816,4.3351088,68.6307,0.48280114,3.6875827,0.09716477,inf,inf,inf,inf,0,1,0,1,4,3,4,3,3,1,1,1,0,0,1
354046080,354045671,42042859,60.1877325,24.832678599999998,-5.7632704,-54.808308,-2.1551423,7.7653837,-5.5215526,4.9729643,-0.6550937,-3.0230932,0.0634668,0.06345705,0.74563396,-0.757486,0.43582165,-0.117514715,-0.0821542,0.28816295,-1.6991501,0.0017657089,0.44439942,-0.03770409,0.00027226465,-9.696816,4.305769,70.23052,0.48142576,3.7302291,0.09702355,inf,inf,inf,inf,0,1,0,1,4,3,4,3,3,1,1,1,0,0,1
354546107,354545683,42042859,60.1877325,24.832678599999998,-6.2031617,-56.076912,-2.1196291,7.7653837,-5.5215526,4.9729643,-0.6893062,-3.0635815,0.0768412,0.0768166,0.74563396,-0.757486,0.43582165,0.057342112,-0.2656236,0.063218005,-1.696782,0.0017830555,0.44657326,-0.03770409,0.00027319888,-9.696816,4.2702556,71.849365,0.48005277,3.772803,0.09687959,inf,inf,inf,inf,0,1,0,1,4,3,4,3,3,1,1,1,0,0,1
355046065,355045672,42042859,60.1877325,24.832678599999998,-6.684306,-57.348297,-2.0779374,7.7653837,-5.5215526,4.9729643,-0.7270947,-3.106075,0.08994111,0.0898988,0.74563396,-0.757486,0.43582165,-0.032277033,-0.13813181,0.022553487,-1.6970024,0.0018003893,0.44618514,-0.03770409,0.00027416795,-9.696816,4.228564,73.48759,0.4832302,3.8154922,0.097217746,inf,inf,inf,inf,0,1,0,1,4,3,4,3,3,1,1,1,0,0,1
355546086,355545671,42042859,60.1877325,24.832678599999998,-7.1250744,-58.61337,-2.0295434,7.7653837,-5.5215526,4.9729643,-0.76094633,-3.1458,0.10382423,0.103737175,0.74563396,-0.757486,0.43582165,-0.05633445,-0.11195015,0.02739485,-1.6971685,0.0018176683,0.44585577,-0.03770409,0.00027514485,-9.696816,4.18017,75.1442,0.48189554,3.8582025,0.097084254,inf,inf,inf,inf,0,1,0,1,4,3,4,3,3,1,1,1,0,0,1
