timestamp,timestamp_sample,ref_timestamp,ref_lat,ref_lon,x,y,z,delta_xy[0],delta_xy[1],delta_z,vx,vy,vz,z_deriv,delta_vxy[0],delta_vxy[1],delta_vz,ax,ay,az,heading,heading_var,unaided_heading,delta_heading,tilt_var,ref_alt,dist_bottom,eph,epv,evh,evv,vxy_max,vz_max,hagl_min,hagl_max,xy_valid,z_valid,v_xy_valid,v_z_valid,xy_reset_counter,z_reset_counter,vxy_reset_counter,vz_reset_counter,heading_reset_counter,heading_good_for_control,xy_global,z_global,dist_bottom_valid,dist_bottom_sensor_bitfield,dead_reckoning
200062295,200061731,42042859,60.1877325,24.832678599999998,0.045347333,-0.975608,-3.0975945,0.2201162,0.143384,-2.0861626e-07,0.0008942104,-0.015181683,0.025991393,0.05342117,-0.025945434,0.04994766,0.011585729,0.0050473204,0.0018061976,0.00027026667,-2.1898737,0.050885566,-0.006242185,0.00729649,6.489097e-05,-9.646487,0.09643555,0.24058177,0.22751144,0.109087035,0.06480524,inf,inf,inf,inf,1,1,1,1,3,2,3,2,2,0,1,1,1,0,0
200072306,200071732,42042859,60.1877325,24.832678599999998,0.045309078,-0.97573876,-3.0969965,0.2201162,0.143384,-2.0861626e-07,0.00093665376,-0.015148092,0.026031222,0.053521346,-0.025945434,0.04994766,0.011585729,0.0032373846,-0.010345256,-0.007652617,-2.1898775,0.05088574,-0.0062476904,0.00729649,6.4962034e-05,-9.646487,0.09610295,0.24118564,0.22790591,0.10951001,0.0649056,inf,inf,inf,inf,1,1,1,1,3,2,3,2,2,0,1,1,1,0,0
200262268,200261730,42042859,60.1877325,24.832678599999998,0.04573097,-0.97886145,-3.086309,0.2201162,0.143384,-2.0861626e-07,0.0013407231,-0.012558267,0.027171142,0.054977443,-0.025945434,0.04994766,0.011585729,-0.08367666,0.12047782,0.06456579,-2.1898527,0.050884254,-0.006249526,0.00729649,6.487221e-05,-9.646487,0.09590769,0.24068022,0.22766276,0.109002054,0.06480335,inf,inf,inf,inf,1,1,1,1,3,2,3,2,2,0,1,1,1,0,0
200462259,200461729,42042859,60.1877325,24.832678599999998,0.04608555,-0.98232746,-3.0745702,0.2201162,0.143384,-2.0861626e-07,4.8752972e-05,-0.012977477,0.030594887,0.058746982,-0.025945434,0.04994766,0.011585729,-0.12804376,0.11612841,-0.005570508,-2.1899707,0.0508827,-0.0064003505,0.00729649,6.486551e-05,-9.646487,0.0959239,0.24080215,0.22782236,0.10896948,0.064808734,inf,inf,inf,inf,1,1,1,1,3,2,3,2,2,0,1,1,1,0,0
200562269,200561729,42042859,60.1877325,24.832678599999998,0.04581929,-0.98293644,-3.0684633,0.2201162,0.143384,-2.0861626e-07,0.001794876,-0.011139603,0.032186512,0.06042544,-0.025945434,0.04994766,0.011585729,0.5402481,-0.20454977,0.024273546,-2.189744,0.05088255,-0.006218301,0.00729649,6.4861786e-05,-9.646487,0.09465599,0.24086282,0.22766319,0.108962685,0.06478656,inf,inf,inf,inf,1,1,1,1,3,2,3,2,2,0,1,1,1,0,0
200662522,200661730,42042859,60.1877325,24.832678599999998,0.045277808,-0.9833227,-3.0624564,0.2201162,0.143384,-2.0861626e-07,-0.00015151754,-0.00954579,0.034532662,0.06253818,-0.025945434,0.04994766,0.011585729,0.21364576,0.10336863,0.13853474,-2.1897638,0.050881468,-0.006297712,0.00729649,6.486196e-05,-9.646487,0.093575716,0.24092352,0.22798124,0.108944,0.064814515,inf,inf,inf,inf,1,1,1,1,3,2,3,2,2,0,1,1,1,0,0
200762252,200761729,42042859,60.1877325,24.832678599999998,0.04397129,-0.9850307,-3.0565536,0.2201162,0.143384,-2.0861626e-07,-0.0013252279,-0.010298674,0.036186974,0.06368676,-0.025945434,0.04994766,0.011585729,-0.10634281,0.10437042,0.0069083823,-2.1897647,0.05088118,-0.006374578,0.00729649,6.4869186e-05,-9.646487,0.09209728,0.24100792,0.22782983,0.10897317,0.06479877,inf,inf,inf,inf,1,1,1,1,3,2,3,2,2,0,1,1,1,0,0
200862255,200861730,42042859,60.1877325,24.832678599999998,0.043315753,-0.98750705,-3.0504851,0.2201162,0.143384,-2.0861626e-07,-0.0010315857,-0.010044195,0.03762482,0.0646668,-0.025945434,0.04994766,0.011585729,-0.08752993,0.02492811,0.084943086,-2.1895204,0.050881416,-0.006206905,0.00729649,6.487922e-05,-9.646487,0.092571974,0.2410953,0.2281566,0.10900855,0.06483285,inf,inf,inf,inf,1,1,1,1,3,2,3,2,2,0,1,1,1,0,0
200962280,200961729,42042859,60.1877325,24.832678599999998,0.043340642,-0.9903225,-3.0441463,0.2201162,0.143384,-2.0861626e-07,-0.0012223462,-0.010461652,0.040537395,0.06724746,-0.025945434,0.04994766,0.011585729,0.10046282,-0.20500976,0.049907178,-2.1895194,0.050879773,-0.006279681,0.00729649,6.488473e-05,-9.646487,0.09169173,0.24117446,0.22800505,0.109020464,0.06481678,inf,inf,inf,inf,1,1,1,1,3,2,3,2,2,0,1,1,1,0,0
201062236,201061729,42042859,60.1877325,24.832678599999998,0.043575782,-0.99179846,-3.038099,0.2201162,0.143384,-2.0861626e-07,-0.0003084325,-0.007124974,0.041907102,0.067861915,-0.025945434,0.04994766,0.011585729,0.039951712,0.1893901,0.24991241,-2.1895223,0.05087962,-0.006340794,0.00729649,6.488514e-05,-9.646487,0.09069657,0.24123627,0.22784351,0.10901055,0.064793706,inf,inf,inf,inf,1,1,1,1,3,2,3,2,2,0,1,1,1,0,0
201162443,201161729,42042859,60.1877325,24.832678599999998,0.043482453,-0.9924842,-3.031777,0.2201162,0.143384,-2.0861626e-07,-0.0001713185,-0.008050515,0.043050215,0.068455994,-0.025945434,0.04994766,0.011585729,-0.037032094,-0.30514342,-0.010197054,-2.1893747,0.05087788,-0.006245036,0.00729649,6.488178e-05,-9.646487,0.09133315,0.24129027,0.2281636,0.10897972,0.06482171,inf,inf,inf,inf,1,1,1,1,3,2,3,2,2,0,1,1,1,0,0
201262240,201261730,42042859,60.1877325,24.832678599999998,0.0420831,-0.99368626,-3.0251677,0.2201162,0.143384,-2.0861626e-07,-0.0020066642,-0.007707079,0.045466892,0.070462964,-0.025945434,0.04994766,0.011585729,-0.03714886,0.20785028,-0.10752701,-2.1894007,0.050877623,-0.006343972,0.00729649,6.489319e-05,-9.646487,0.0893693,0.24137594,0.22800976,0.109018475,0.06480512,inf,inf,inf,inf,1,1,1,1,3,2,3,2,2,0,1,1,1,0,0
201362214,201361729,42042859,60.1877325,24.832678599999998,0.040233534,-0.9958576,-3.0189517,0.2201162,0.143384,-2.0861626e-07,-0.0047125607,-0.008104591,0.048669137,0.07267338,-0.025945434,0.04994766,0.011585729,-0.18378325,0.15353106,0.24482217,-2.1892998,0.050876822,-0.006354611,0.00729649,6.4890366e-05,-9.646487,0.08786082,0.24143313,0.22832803,0.109013274,0.06483293,inf,inf,inf,inf,1,1,1,1,3,2,3,2,2,0,1,1,1,0,0
201462201,201461729,42042859,60.1877325,24.832678599999998,0.038774643,-0.99706024,-3.0127645,0.2201162,0.143384,-2.0861626e-07,-0.003917438,-0.00678797,0.049983684,0.072901845,-0.025945434,0.04994766,0.011585729,-0.11005966,0.02385287,0.066727206,-2.1891398,0.050875228,-0.0062862174,0.00729649,6.490096e-05,-9.646487,0.08783388,0.24151427,0.22817142,0.10902308,0.06481609,inf,inf,inf,inf,1,1,1,1,3,2,3,2,2,0,1,1,1,0,0
201562201,201561729,42042859,60.1877325,24.832678599999998,0.037207004,-0.9974032,-3.0066006,0.2201162,0.143384,-2.0861626e-07,-0.004540628,-0.0051538963,0.051588684,0.07336482,-0.025945434,0.04994766,0.011585729,0.020735277,0.16358915,0.09781655,-2.189135,0.05087458,-0.006358487,0.00729649,6.490844e-05,-9.646487,0.08611989,0.2415946,0.22849695,0.109053805,0.06484967,inf,inf,inf,inf,1,1,1,1,3,2,3,2,2,0,1,1,1,0,0
201662501,201661729,42042859,60.1877325,24.832678599999998,0.036251053,-0.99764097,-3.0011814,0.2201162,0.143384,-2.0861626e-07,-0.0054840427,-0.004694833,0.052842267,0.07270997,-0.025945434,0.04994766,0.011585729,0.23956436,-0.068364374,0.06003733,-2.1890385,0.050872516,-0.006318353,0.00729649,6.4918786e-05,-9.646487,0.08331156,0.24167436,0.22834031,0.10906206,0.0648325,inf,inf,inf,inf,1,1,1,1,3,2,3,2,2,0,1,1,1,0,0
201762200,201761729,42042859,60.1877325,24.832678599999998,0.034764204,-0.9981818,-2.9960675,0.2201162,0.143384,-2.0861626e-07,-0.0056148153,-0.00444968,0.055158276,0.072922535,-0.025945434,0.04994766,0.011585729,0.16795836,-0.13515872,0.24557245,-2.1889389,0.05087144,-0.006290759,0.00729649,6.492593e-05,-9.646487,0.08366346,0.2417537,0.22866434,0.10909445,0.06486569,inf,inf,inf,inf,1,1,1,1,3,2,3,2,2,0,1,1,1,0,0
201862200,201861729,42042859,60.1877325,24.832678599999998,0.03323846,-0.99839157,-2.9907284,0.2201162,0.143384,-2.0861626e-07,-0.007339923,-0.0033905571,0.05525342,0.07123677,-0.025945434,0.04994766,0.011585729,-0.07852047,0.0027980541,0.040851343,-2.1888769,0.05087103,-0.0063026245,0.00729649,6.493568e-05,-9.646487,0.08366203,0.24182904,0.22850499,0.10912148,0.06484797,inf,inf,inf,inf,1,1,1,1,3,2,3,2,2,0,1,1,1,0,0
201962212,201961729,42042859,60.1877325,24.832678599999998,0.03267278,-0.99896884,-2.9856768,0.2201162,0.143384,-2.0861626e-07,-0.00817986,-0.003316637,0.057215095,0.07120166,-0.025945434,0.04994766,0.011585729,0.14918527,0.26313818,0.050902173,-2.188822,0.050868418,-0.0063058264,0.00729649,6.493155e-05,-9.646487,0.08113599,0.24187939,0.22881782,0.10907626,0.06487407,inf,inf,inf,inf,1,1,1,1,3,2,3,2,2,0,1,1,1,0,0
202062240,202061729,42042859,60.1877325,24.832678599999998,0.03299444,-1.0007432,-2.98152,0.2201162,0.143384,-2.0861626e-07,-0.0069056586,-0.005949883,0.05823575,0.06950249,-0.025945434,0.04994766,0.011585729,0.08166461,-0.27319288,0.00089639926,-2.1888056,0.050868142,-0.006321593,0.00729649,6.4932865e-05,-9.646487,0.08017492,0.24193063,0.22864829,0.10906891,0.064850174,inf,inf,inf,inf,1,1,1,1,3,2,3,2,2,0,1,1,1,0,0
202162491,202161729,42042859,60.1877325,24.832678599999998,0.03129791,-1.0032032,-2.9770799,0.2201162,0.143384,-2.0861626e-07,-0.00938252,-0.006086074,0.05898941,0.067991845,-0.025945434,0.04994766,0.011585729,0.02125463,0.15378733,-0.020321136,-2.188765,0.050865937,-0.0063417894,0.00729649,6.4930755e-05,-9.646487,0.08223677,0.24197486,0.22895977,0.109028086,0.06487665,inf,inf,inf,inf,1,1,1,1,3,2,3,2,2,0,1,1,1,0,0
202262246,202261729,42042859,60.1877325,24.832678599999998,0.028366426,-1.0053842,-2.9718392,0.2201162,0.143384,-2.0861626e-07,-0.010615929,-0.0062330225,0.06225856,0.06991292,-0.025945434,0.04994766,0.011585729,0.11106353,-0.011874517,0.4889422,-2.1887054,0.050865278,-0.0063729966,0.00729649,6.494366e-05,-9.646487,0.082834244,0.24205081,0.2287958,0.109065756,0.06485916,inf,inf,inf,inf,1,1,1,1,3,2,3,2,2,0,1,1,1,0,0
202362276,202361729,42042859,60.1877325,24.832678599999998,0.026419705,-1.0057315,-2.9663844,0.2201162,0.143384,-2.0861626e-07,-0.0098482855,-0.005469361,0.061484303,0.0680035,-0.025945434,0.04994766,0.011585729,0.14784078,-0.11797559,-0.061538264,-2.1886692,0.050864268,-0.0063862265,0.00729649,6.494238e-05,-9.646487,0.08239102,0.24209882,0.22861968,0.10905679,0.0648346,inf,inf,inf,inf,1,1,1,1,3,2,3,2,2,0,1,1,1,0,0
202462244,202461729,42042859,60.1877325,24.832678599999998,0.025509581,-1.0053561,-2.961098,0.2201162,0.143384,-2.0861626e-07,-0.011181123,-0.0029140406,0.06246602,0.06773925,-0.025945434,0.04994766,0.011585729,-0.06390696,-0.15158412,-0.04413743,-2.1885953,0.05086176,-0.0063406387,0.00729649,6.495459e-05,-9.646487,0.081511974,0.24216451,0.22893839,0.10906382,0.06486762,inf,inf,inf,inf,1,1,1,1,3,2,3,2,2,0,1,1,1,0,0
202562285,202561729,42042859,60.1877325,24.832678599999998,0.023493132,-1.0049369,-2.9560256,0.2201162,0.143384,-2.0861626e-07,-0.010086581,3.0388192e-05,0.0634109,0.067259856,-0.025945434,0.04994766,0.011585729,0.20375499,0.2859432,0.019402873,-2.1885686,0.05086052,-0.0063532614,0.00729649,6.495361e-05,-9.646487,0.0812788,0.24221285,0.22876024,0.1090526,0.06484297,inf,inf,inf,inf,1,1,1,1,3,2,3,2,2,0,1,1,1,0,0
202662532,202661729,42042859,60.1877325,24.832678599999998,0.021327386,-1.0052512,-2.950898,0.2201162,0.143384,-2.0861626e-07,-0.010949206,0.0015505513,0.06393198,0.066526,-0.025945434,0.04994766,0.011585729,0.07806213,-0.06917205,0.13535154,-2.1884634,0.050858233,-0.0063279197,0.00729649,6.495623e-05,-9.646487,0.08187628,0.24225508,0.22907011,0.10902127,0.06486992,inf,inf,inf,inf,1,1,1,1,3,2,3,2,2,0,1,1,1,0,0
202762243,202761729,42042859,60.1877325,24.832678599999998,0.018896813,-1.0054799,-2.9457908,0.2201162,0.143384,-2.0861626e-07,-0.012212841,0.0019200116,0.06401624,0.06542154,-0.025945434,0.04994766,0.011585729,-0.012083835,-0.06528303,-0.32180372,-2.1883512,0.050857257,-0.0063170595,0.00729649,6.495637e-05,-9.646487,0.08120561,0.24229775,0.22889018,0.10901748,0.06484563,inf,inf,inf,inf,1,1,1,1,3,2,3,2,2,0,1,1,1,0,0
202862240,202861730,42042859,60.1877325,24.832678599999998,0.01678225,-1.0055267,-2.9409895,0.2201162,0.143384,-2.0861626e-07,-0.013366663,-0.00019564932,0.06656546,0.066460766,-0.025945434,0.04994766,0.011585729,0.19687262,-0.023975557,0.22699602,-2.1883178,0.05085623,-0.0063692355,0.00729649,6.496012e-05,-9.646487,0.07989144,0.24234508,0.22919746,0.109018646,0.064872466,inf,inf,inf,inf,1,1,1,1,3,2,3,2,2,0,1,1,1,0,0
202962282,202961729,42042859,60.1877325,24.832678599999998,0.015459914,-1.006551,-2.936258,0.2201162,0.143384,-2.0861626e-07,-0.013034558,0.00058486697,0.06642868,0.06484155,-0.025945434,0.04994766,0.011585729,-0.07642819,-0.035136797,-0.022296052,-2.1882322,0.05085369,-0.0063553005,0.00729649,6.495955e-05,-9.646487,0.08110714,0.24238554,0.22901593,0.1089833,0.0648485,inf,inf,inf,inf,1,1,1,1,3,2,3,2,2,0,1,1,1,0,0
203062206,203061729,42042859,60.1877325,24.832678599999998,0.013913874,-1.0090866,-2.9309676,0.2201162,0.143384,-2.0861626e-07,-0.013826548,-0.00074649375,0.06795613,0.0654806,-0.025945434,0.04994766,0.011585729,0.024569469,-0.0037742625,-0.03509189,-2.1881359,0.050852414,-0.0063725105,0.00729649,6.496461e-05,-9.646487,0.08244038,0.24242747,0.22932243,0.10898318,0.06487567,inf,inf,inf,inf,1,1,1,1,3,2,3,2,2,0,1,1,1,0,0
203162452,203161729,42042859,60.1877325,24.832678599999998,0.0116335545,-1.0109459,-2.9255667,0.2201162,0.143384,-2.0861626e-07,-0.014921866,-0.0013715232,0.06899754,0.06566239,-0.025945434,0.04994766,0.011585729,0.15407811,0.12883091,-0.3489262,-2.1880028,0.05085009,-0.0063541667,0.00729649,6.496547e-05,-9.646487,0.08115721,0.24246962,0.22913949,0.10896379,0.06485205,inf,inf,inf,inf,1,1,1,1,3,2,3,2,2,0,1,1,1,0,0
203262215,203261730,42042859,60.1877325,24.832678599999998,0.009257463,-1.0127212,-2.9200177,0.2201162,0.143384,-2.0861626e-07,-0.017111653,-0.0015891974,0.073485844,0.069320396,-0.025945434,0.04994766,0.011585729,-0.16322209,-0.052461665,0.36811012,-2.1878488,0.050848965,-0.0063130604,0.00729649,6.497148e-05,-9.646487,0.08118868,0.24251325,0.2294438,0.108958334,0.06487913,inf,inf,inf,inf,1,1,1,1,3,2,3,2,2,0,1,1,1,0,0
203362209,203361733,42042859,60.1877325,24.832678599999998,0.00696655,-1.0143785,-2.9143467,0.2201162,0.143384,-2.0861626e-07,-0.016668428,-0.0029770306,0.07224386,0.06727134,-0.025945434,0.04994766,0.011585729,0.0427169,0.079113685,-0.36632124,-2.1878421,0.05084823,-0.0064000217,0.00729649,6.497315e-05,-9.646487,0.081218004,0.24255383,0.22925949,0.10896057,0.06485576,inf,inf,inf,inf,1,1,1,1,3,2,3,2,2,0,1,1,1,0,0
203462222,203461729,42042859,60.1877325,24.832678599999998,0.004477387,-1.0164044,-2.9085069,0.2201162,0.143384,-2.0861626e-07,-0.018025992,-0.004019185,0.07416994,0.06855697,-0.025945434,0.04994766,0.011585729,-0.0677906,-0.11313732,-0.04620516,-2.1876445,0.05084549,-0.006303739,0.00729649,6.49789e-05,-9.646487,0.08099675,0.24259554,0.22956336,0.108938366,0.06488317,inf,inf,inf,inf,1,1,1,1,3,2,3,2,2,0,1,1,1,0,0
203562214,203561729,42042859,60.1877325,24.832678599999998,0.0011073741,-1.0172702,-2.9026082,0.2201162,0.143384,-2.0861626e-07,-0.019464765,-0.005028355,0.0762627,0.06992542,-0.025945434,0.04994766,0.011585729,0.05845613,-0.0005602224,-0.031536262,-2.1875837,0.050844267,-0.006328597,0.00729649,6.498177e-05,-9.646487,0.08102989,0.24263786,0.22938058,0.10894418,0.06486037,inf,inf,inf,inf,1,1,1,1,3,2,3,2,2,0,1,1,1,0,0
203662508,203661729,42042859,60.1877325,24.832678599999998,-0.0018341972,-1.0174651,-2.8963165,0.2201162,0.143384,-2.0861626e-07,-0.020543294,-0.0053275693,0.07688095,0.07021645,-0.025945434,0.04994766,0.011585729,-0.1988319,-0.5474279,-0.013378452,-2.187524,0.05084192,-0.006319175,0.00729649,6.498776e-05,-9.646487,0.08046937,0.24268118,0.22919933,0.10892698,0.064837486,inf,inf,inf,inf,1,1,1,1,3,2,3,2,2,0,1,1,1,0,0
203762208,203761729,42042859,60.1877325,24.832678599999998,-0.003613822,-1.0181824,-2.8902605,0.2201162,0.143384,-2.0861626e-07,-0.019868763,-0.0029233121,0.07752005,0.07026954,-0.025945434,0.04994766,0.011585729,0.21272533,0.8259692,0.10319259,-2.187513,0.050840985,-0.0063502407,0.00729649,6.499136e-05,-9.646487,0.080569506,0.24272521,0.22950901,0.10893199,0.0648661,inf,inf,inf,inf,1,1,1,1,3,2,3,2,2,0,1,1,1,0,0
203862256,203861728,42042859,60.1877325,24.832678599999998,-0.005135879,-1.0193082,-2.883958,0.2201162,0.143384,-2.0861626e-07,-0.01833312,-0.0037546789,0.0811054,0.07342997,-0.025945434,0.04994766,0.011585729,0.07987273,-0.21158947,0.41720337,-2.1874063,0.05083976,-0.006292897,0.00729649,6.499812e-05,-9.646487,0.08100963,0.24277388,0.22933164,0.10893399,0.06484386,inf,inf,inf,inf,1,1,1,1,3,2,3,2,2,0,1,1,1,0,0
203962220,203961729,42042859,60.1877325,24.832678599999998,-0.007750389,-1.0193826,-2.8770065,0.2201162,0.143384,-2.0861626e-07,-0.019538058,-0.0021724156,0.08063194,0.073029466,-0.025945434,0.04994766,0.011585729,0.4009088,0.115699634,-0.25248224,-2.1874485,0.050837733,-0.0063695167,0.00729649,6.500081e-05,-9.646487,0.08367467,0.24282256,0.22964594,0.10892174,0.064873174,inf,inf,inf,inf,1,1,1,1,3,2,3,2,2,0,1,1,1,0,0
204062184,204061729,42042859,60.1877325,24.832678599999998,-0.010925025,-1.0190847,-2.8692894,0.2201162,0.143384,-2.0861626e-07,-0.020432105,-0.0077425605,0.08133401,0.07445727,-0.025945434,0.04994766,0.011585729,-1.3185776,-0.40193588,0.27437267,-2.18732,0.050836395,-0.0062763277,0.00729649,6.500776e-05,-9.646487,0.083364725,0.2428722,0.22946855,0.10892872,0.06485147,inf,inf,inf,inf,1,1,1,1,3,2,3,2,2,0,1,1,1,0,0
204162500,204161729,42042859,60.1877325,24.832678599999998,-0.014151178,-1.0182917,-2.8614051,0.2201162,0.143384,-2.0861626e-07,-0.02346264,-0.003362752,0.08585367,0.07957479,-0.025945434,0.04994766,0.011585729,-0.8881137,0.041851938,0.72223824,-2.1873217,0.050834395,-0.006312345,0.00729649,6.5010405e-05,-9.646487,0.08347535,0.24291518,0.22978202,0.10891357,0.06488084,inf,inf,inf,inf,1,1,1,1,3,2,3,2,2,0,1,1,1,0,0
204262287,204261730,42042859,60.1877325,24.832678599999998,-0.015666975,-1.016092,-2.8538952,0.2201162,0.143384,-2.0861626e-07,-0.022299336,-0.0035088067,0.08581547,0.0795033,-0.025945434,0.04994766,0.011585729,-0.06235089,-0.03118229,0.3260749,-2.1873512,0.050834414,-0.0063532456,0.00729649,6.5017055e-05,-9.646487,0.08033943,0.24295966,0.22960566,0.10891088,0.0648594,inf,inf,inf,inf,1,1,1,1,3,2,3,2,2,0,1,1,0,0,0
204362244,204361729,42042859,60.1877325,24.832678599999998,-0.016576659,-1.0130659,-2.8467913,0.2201162,0.143384,-2.0861626e-07,-0.0207533,0.00046569336,0.09034387,0.083482295,-0.025945434,0.04994766,0.011585729,0.46271914,0.28731313,1.5105164,-2.187282,0.05083246,-0.006312147,0.00729649,6.5025015e-05,-9.646487,0.08093667,0.2430086,0.22991668,0.108926624,0.06488834,inf,inf,inf,inf,1,1,1,1,3,2,3,2,2,0,1,1,0,0,0
204462239,204461729,42042859,60.1877325,24.832678599999998,-0.016478598,-1.0108244,-2.8395607,0.2201162,0.143384,-2.0861626e-07,-0.011119562,0.0008293424,0.0773702,0.07008042,-0.025945434,0.04994766,0.011585729,1.4066706,0.37174436,-2.5655937,-2.187178,0.050830435,-0.006278018,0.00729649,6.503049e-05,-9.646487,0.08105254,0.24305107,0.2297387,0.10891148,0.06486686,inf,inf,inf,inf,1,1,1,1,3,2,3,2,2,0,1,1,0,0,0
204562244,204561729,42042859,60.1877325,24.832678599999998,-0.016606798,-1.0104065,-2.8322785,0.2201162,0.143384,-2.0861626e-07,-0.015413354,-0.0017313772,0.08376105,0.07616956,-0.025945434,0.04994766,0.011585729,-0.3694786,-0.57382387,-1.5893439,-2.1871233,0.050827265,-0.0063436893,0.00729649,6.5048094e-05,-9.646487,0.08085537,0.24311833,0.23005676,0.10896709,0.06490194,inf,inf,inf,inf,1,1,1,1,3,2,3,2,2,0,1,1,0,0,0
204662506,204661729,42042859,60.1877325,24.832678599999998,-0.016844612,-1.0106307,-2.8253407,0.2201162,0.143384,-2.0861626e-07,-0.011033682,0.0035051426,0.08461625,0.07626333,-0.025945434,0.04994766,0.011585729,0.6840985,-0.051248174,2.139343,-2.1868079,0.05082352,-0.006188641,0.00729649,6.5055545e-05,-9.646487,0.079013586,0.24315582,0.22987455,0.1089744,0.06487988,inf,inf,inf,inf,1,1,1,1,3,2,3,2,2,0,1,1,0,0,0
204762273,204761729,42042859,60.1877325,24.832678599999998,-0.016129952,-1.0114393,-2.8191009,0.2201162,0.143384,-2.0861626e-07,-0.011145409,0.0011293194,0.07626828,0.0667068,-0.025945434,0.04994766,0.011585729,-0.4858133,-1.6953945,-0.21912697,-2.1867692,0.050822772,-0.0063430625,0.00729649,6.5060056e-05,-9.646487,0.077325106,0.24320085,0.2296912,0.10892964,0.06485747,inf,inf,inf,inf,1,1,1,1,3,2,3,2,2,0,1,1,0,0,0
204962269,204961729,42042859,60.1877325,24.832678599999998,-0.014987081,-1.012429,-2.8096676,0.2201162,0.143384,-2.0861626e-07,-0.013824447,0.0027836345,0.07154999,0.058259584,-0.025945434,0.04994766,0.011585729,-0.8708277,-1.091515,-2.3649373,-2.1861868,0.050819255,-0.006133254,0.00729649,6.507134e-05,-9.646487,0.078286886,0.24328144,0.22981204,0.108951956,0.06486365,inf,inf,inf,inf,1,1,1,1,3,2,3,2,2,0,1,1,0,0,0
205062241,205061729,42042859,60.1877325,24.832678599999998,-0.01536951,-1.0124081,-2.805598,0.2201162,0.143384,-2.0861626e-07,-0.018153863,0.0066314507,0.07533499,0.060049374,-0.025945434,0.04994766,0.011585729,-2.1751087,0.8401076,-0.42311716,-2.1862707,0.05081896,-0.0063725207,0.00729649,6.507556e-05,-9.646487,0.077314615,0.24332005,0.23011978,0.10902253,0.06489263,inf,inf,inf,inf,1,1,1,1,3,2,3,2,2,0,1,1,0,0,0
205162496,205161729,42042859,60.1877325,24.832678599999998,-0.016364738,-1.0124521,-2.8022044,0.2201162,0.143384,-2.0861626e-07,-0.01504227,0.0030890796,0.07330479,0.05569662,-0.025945434,0.04994766,0.011585729,-1.3847392,-0.635038,-0.4627222,-2.1857703,0.050815783,-0.006011215,0.00729649,6.507752e-05,-9.646487,0.07677102,0.24335974,0.22993155,0.10898035,0.06487016,inf,inf,inf,inf,1,1,1,1,3,2,3,2,2,0,1,1,0,0,0
205262216,205261729,42042859,60.1877325,24.832678599999998,-0.016244046,-1.0131305,-2.799547,0.2201162,0.143384,-2.0861626e-07,-0.006142089,-0.005729199,0.07071358,0.050691444,-0.025945434,0.04994766,0.011585729,0.8387735,-1.943238,1.822657,-2.1852517,0.050814133,-0.0056397114,0.00729649,6.5087064e-05,-9.646487,0.076562405,0.24342342,0.23024514,0.10904303,0.064904965,inf,inf,inf,inf,1,1,1,1,3,2,3,2,2,0,1,1,0,0,0
205362202,205361730,42042859,60.1877325,24.832678599999998,-0.01378577,-1.0157586,-2.798756,0.2201162,0.143384,-2.0861626e-07,0.019271825,-0.022497937,0.042248953,0.019790448,-0.025945434,0.04994766,0.011585729,0.31479573,1.7316012,0.74533427,-2.1836426,0.050812885,-0.0041341526,0.00729649,6.5088694e-05,-9.646487,0.07904863,0.24346137,0.2300613,0.10905665,0.06488276,inf,inf,inf,inf,1,1,1,1,3,2,3,2,2,0,1,1,0,0,0
205462207,205461729,42042859,60.1877325,24.832678599999998,-0.008202067,-1.0209086,-2.8012028,0.2201162,0.143384,-2.0861626e-07,0.069333784,-0.052538663,0.017811652,-0.0072091436,-0.025945434,0.04994766,0.011585729,2.7628825,-2.1925063,-1.1936309,-2.1841707,0.05080798,-0.0046859016,0.00729649,6.509745e-05,-9.646487,0.08226919,0.24352358,0.23038,0.10919993,0.06491784,inf,inf,inf,inf,1,1,1,1,3,2,3,2,2,0,1,1,0,0,0
205562254,205561729,42042859,60.1877325,24.832678599999998,0.0009789683,-1.0274311,-2.8061557,0.2201162,0.143384,-2.0861626e-07,0.11328566,-0.071446195,-0.021315949,-0.0483159,-0.025945434,0.04994766,0.011585729,0.71236366,-0.051009648,1.0006633,-2.179542,0.05076641,-0.00014741728,0.00729649,6.5083594e-05,-9.646487,0.089779615,0.24356233,0.23019484,0.10968763,0.06489551,inf,inf,inf,inf,1,1,1,1,3,2,3,2,2,0,1,1,0,0,0
205662456,205661729,42042859,60.1877325,24.832678599999998,0.014844735,-1.0349312,-2.8165808,0.2201162,0.143384,-2.0861626e-07,0.13992737,-0.084644005,-0.091656566,-0.11989423,-0.025945434,0.04994766,0.011585729,-0.5719635,-0.95964426,2.7305057,-2.1672583,0.050550018,0.011817963,0.00729649,6.50601e-05,-9.646487,0.10085964,0.24359609,0.23050371,0.11055155,0.06492438,inf,inf,inf,inf,1,1,1,1,3,2,3,2,2,0,1,1,0,0,0
205762208,205761729,42042859,60.1877325,24.832678599999998,0.032866973,-1.0446631,-2.834488,0.2201162,0.143384,-2.0861626e-07,0.18514518,-0.0859026,-0.17151359,-0.20102188,-0.025945434,0.04994766,0.011585729,2.7346196,1.1234246,-2.5479126,-2.1531186,0.050096396,0.025670042,0.00729649,6.502787e-05,-9.646487,0.118766785,0.24363771,0.23031743,0.11273077,0.06490291,inf,inf,inf,inf,1,1,1,1,3,2,3,2,2,0,1,1,0,0,0
205862216,205861729,42042859,60.1877325,24.832678599999998,0.051990297,-1.0534362,-2.8586257,0.2201162,0.143384,-2.0861626e-07,0.19283044,-0.08701665,-0.2281602,-0.25837398,-0.025945434,0.04994766,0.011585729,0.76775753,0.4662939,0.037945617,-2.1389072,0.049536295,0.039205216,0.00729649,6.498411e-05,-9.646487,0.14290452,0.24367787,0.23062603,0.11396852,0.064931825,inf,inf,inf,inf,1,1,1,1,3,2,3,2,2,0,1,1,0,0,0
205962207,205961729,42042859,60.1877325,24.832678599999998,0.0717547,-1.0602413,-2.8872173,0.2201162,0.143384,-2.0861626e-07,0.20618151,-0.0732957,-0.26761025,-0.2977957,-0.025945434,0.04994766,0.011585729,-0.4618813,1.4224975,-0.66616905,-2.1236706,0.048703533,0.052316103,0.00729649,6.4933556e-05,-9.646487,0.17149615,0.24371488,0.23043866,0.11525021,0.06491083,inf,inf,inf,inf,1,1,1,1,3,2,3,2,2,0,1,1,0,0,0
206062237,206061729,42042859,60.1877325,24.832678599999998,0.09387391,-1.0638951,-2.9175692,0.2201162,0.143384,-2.0861626e-07,0.21320638,-0.05347345,-0.30145267,-0.3307494,-0.025945434,0.04994766,0.011585729,-0.03173046,1.3627323,-2.474186,-2.1081614,0.04786077,0.0636347,0.00729649,6.4879e-05,-9.646487,0.20184803,0.24375479,0.23024757,0.11618669,0.064889364,inf,inf,inf,inf,1,1,1,1,3,2,3,2,2,0,1,1,0,0,0
206162240,206161729,42042859,60.1877325,24.832678599999998,0.11745237,-1.0654373,-2.9508166,0.2201162,0.143384,-2.0861626e-07,0.20723334,-0.036665328,-0.33579865,-0.36371008,-0.025945434,0.04994766,0.011585729,0.34727982,0.7010496,-3.293091,-2.0924892,0.046933915,0.07460153,0.00729649,6.483136e-05,-9.646487,0.2350955,0.24380158,0.23055181,0.115666755,0.06491884,inf,inf,inf,inf,1,1,1,1,3,2,3,2,2,0,1,1,0,0,0
206262274,206261729,42042859,60.1877325,24.832678599999998,0.14190404,-1.0651528,-2.9866543,0.2201162,0.143384,-2.0861626e-07,0.19407392,-0.034944408,-0.35674116,-0.38286057,-0.025945434,0.04994766,0.011585729,-1.1640129,-3.074357,1.7261358,-2.0822215,0.04590216,0.07971581,0.00729649,6.478815e-05,-9.646487,0.27093315,0.24384494,0.23036,0.11485714,0.06489629,inf,inf,inf,inf,1,1,1,1,3,2,3,2,2,0,1,1,0,0,0
206662240,206661729,42042859,60.1877325,24.832678599999998,0.19427425,-1.0567029,-3.1843526,0.2201162,0.143384,-2.0861626e-07,0.042187862,0.029902024,-0.55464405,-0.57880294,-0.025945434,0.04994766,0.011585729,-0.8287206,-0.14725295,1.1482424,-2.0660448,0.043711994,0.08871853,0.00729649,6.452633e-05,-9.646487,0.4686315,0.24403124,0.23057139,0.11036364,0.06491002,inf,inf,inf,inf,1,1,1,1,3,2,3,2,2,0,1,1,0,0,0
206762245,206761729,42042859,60.1877325,24.832678599999998,0.2016371,-1.0519783,-3.2443788,0.2201162,0.143384,-2.0861626e-07,0.0102110095,0.0331759,-0.60770905,-0.6313234,-0.025945434,0.04994766,0.011585729,-1.3674074,0.44321534,-4.076662,-2.060083,0.043156926,0.09494041,0.00729649,6.4421634e-05,-9.646487,0.5286577,0.2440711,0.23086932,0.11043793,0.06493979,inf,inf,inf,inf,1,1,1,1,3,2,3,2,2,0,1,1,0,0,0
206862293,206861729,42042859,60.1877325,24.832678599999998,0.20298797,-1.0479007,-3.3081465,0.2201162,0.143384,-2.0861626e-07,-0.014946595,0.0293058,-0.6508372,-0.6735295,-0.025945434,0.04994766,0.011585729,2.0783005,-1.8728772,-2.735088,-2.0555682,0.042803988,0.09953555,0.00729649,6.430362e-05,-9.646487,0.59242535,0.24411504,0.2306685,0.11109322,0.06491961,inf,inf,inf,inf,1,1,1,1,3,2,3,2,2,0,1,1,0,0,0
206962243,206961729,42042859,60.1877325,24.832678599999998,0.19925894,-1.0446043,-3.3751094,0.2201162,0.143384,-2.0861626e-07,-0.043033756,0.035778087,-0.68277,-0.7040877,-0.025945434,0.04994766,0.011585729,0.036698774,-0.36742344,0.7094095,-2.0512857,0.042035624,0.10368721,0.00729649,6.4177264e-05,-9.646487,0.6593883,0.24415016,0.23096539,0.11193109,0.06495017,inf,inf,inf,inf,1,1,1,1,3,2,3,2,2,0,1,1,0,0,0
207062241,207061729,42042859,60.1877325,24.832678599999998,0.19091521,-1.0421464,-3.4453685,0.2201162,0.143384,-2.0861626e-07,-0.0667335,0.03452377,-0.7110909,-0.7310888,-0.025945434,0.04994766,0.011585729,0.3100875,0.63172805,1.6680804,-2.0463552,0.041467175,0.10754259,0.00729649,6.405082e-05,-9.646487,0.7296474,0.24419035,0.2307646,0.11293085,0.06492948,inf,inf,inf,inf,1,1,1,1,3,2,3,2,2,0,1,1,0,0,0
207162203,207161729,42042859,60.1877325,24.832678599999998,0.18095243,-1.0392814,-3.5201511,0.2201162,0.143384,-2.0861626e-07,-0.08728194,0.029518997,-0.75082827,-0.7703675,-0.025945434,0.04994766,0.011585729,0.4525148,-1.9408675,1.0783798,-2.0439053,0.04080211,0.10910326,0.00729649,6.392763e-05,-9.646487,0.80443,0.24422976,0.2310595,0.113453686,0.06495924,inf,inf,inf,inf,1,1,1,1,3,2,3,2,2,0,1,1,0,0,0
207262215,207261729,42042859,60.1877325,24.832678599999998,0.1718607,-1.0397059,-3.5996218,0.2201162,0.143384,-2.0861626e-07,-0.1114767,0.028281275,-0.7988625,-0.8186579,-0.025945434,0.04994766,0.011585729,-0.8686162,0.2895994,-1.803312,-2.0446372,0.039744,0.10642475,0.00729649,6.381673e-05,-9.646487,0.88390064,0.24429211,0.23086391,0.11464203,0.06494706,inf,inf,inf,inf,1,1,1,1,3,2,3,2,2,0,1,1,0,0,0
207362236,207361729,42042859,60.1877325,24.832678599999998,0.16158423,-1.0395954,-3.68213,0.2201162,0.143384,-2.0861626e-07,-0.13211069,0.025846573,-0.8162101,-0.8359089,-0.025945434,0.04994766,0.011585729,0.56283325,-1.0945542,1.0340152,-2.0499437,0.039000038,0.09913244,0.00729649,6.370172e-05,-9.646487,0.96640897,0.24433059,0.23065767,0.11433957,0.064923935,inf,inf,inf,inf,1,1,1,1,3,2,3,2,2,0,1,1,0,0,0
207462204,207461729,42042859,60.1877325,24.832678599999998,0.14927922,-1.0366012,-3.76738,0.2201162,0.143384,-2.0861626e-07,-0.1516178,0.03553691,-0.8495101,-0.86920774,-0.025945434,0.04994766,0.011585729,-0.82998115,-0.80595624,-0.72554666,-2.0592332,0.03793866,0.0892672,0.00729649,6.359482e-05,-9.646487,1.0516589,0.24436602,0.23094992,0.11509024,0.06495596,inf,inf,inf,inf,1,1,1,1,3,2,3,2,2,0,1,1,0,0,0
207562231,207561729,42042859,60.1877325,24.832678599999998,0.13340709,-1.0321167,-3.8556888,0.2201162,0.143384,-2.0861626e-07,-0.17017889,0.060938105,-0.8772756,-0.89726067,-0.025945434,0.04994766,0.011585729,0.2530335,-0.17307493,-1.2198219,-2.0724912,0.03720603,0.076201715,0.00729649,6.350331e-05,-9.646487,1.1399677,0.24440959,0.2307415,0.11567049,0.06493614,inf,inf,inf,inf,1,1,1,1,3,2,3,2,2,0,1,1,0,0,0
207662209,207661729,42042859,60.1877325,24.832678599999998,0.114661105,-1.028181,-3.9470556,0.2201162,0.143384,-2.0861626e-07,-0.19381216,0.07256405,-0.9067299,-0.92735595,-0.025945434,0.04994766,0.011585729,-0.50006706,-0.3704066,0.6539154,-2.0871048,0.036410365,0.06026607,0.00729649,6.342711e-05,-9.646487,1.2313344,0.24445198,0.23103222,0.11557078,0.06496617,inf,inf,inf,inf,1,1,1,1,3,2,3,2,2,0,1,1,0,0,0
207762204,207761729,42042859,60.1877325,24.832678599999998,0.097569495,-1.0224723,-4.0423756,0.2201162,0.143384,-2.0861626e-07,-0.2012505,0.087797984,-0.9515845,-0.9729007,-0.025945434,0.04994766,0.011585729,-0.2757886,0.109710194,-1.5708933,-2.1042814,0.03549785,0.042435892,0.00729649,6.3367654e-05,-9.646487,1.3266544,0.24449614,0.23082455,0.11671693,0.06494948,inf,inf,inf,inf,1,1,1,1,3,2,3,2,2,0,1,1,0,0,0
207862210,207861729,42042859,60.1877325,24.832678599999998,0.07875163,-1.018568,-4.140795,0.2201162,0.143384,-2.0861626e-07,-0.20545544,0.08727115,-0.9825506,-1.0041732,-0.025945434,0.04994766,0.011585729,1.1617631,-0.7116137,-2.3701572,-2.118161,0.034771852,0.026177198,0.00729649,6.332884e-05,-9.646487,1.4250741,0.24454188,0.23111491,0.11629936,0.064979255,inf,inf,inf,inf,1,1,1,1,3,2,3,2,2,0,1,1,0,0,0
207962204,207961729,42042859,60.1877325,24.832678599999998,0.058721595,-1.0141475,-4.242351,0.2201162,0.143384,-2.0861626e-07,-0.19269328,0.08338595,-1.0030631,-1.0251706,-0.025945434,0.04994766,0.011585729,1.3415163,0.52650416,-0.059849907,-2.1325626,0.03403835,0.009157901,0.00729649,6.330752e-05,-9.646487,1.5266299,0.24460602,0.23091303,0.11629796,0.06496688,inf,inf,inf,inf,1,1,1,1,3,2,3,2,2,0,1,1,0,0,0
208062225,208061731,42042859,60.1877325,24.832678599999998,0.040977113,-1.0103652,-4.3462644,0.2201162,0.143384,-2.0861626e-07,-0.17602243,0.06729891,-1.0314265,-1.0541985,-0.025945434,0.04994766,0.011585729,1.5838447,-0.15799956,-2.0159101,-2.1452615,0.03345386,-0.006211403,0.00729649,6.3289626e-05,-9.646487,1.6305432,0.24465369,0.23120478,0.1159188,0.06500049,inf,inf,inf,inf,1,1,1,1,3,2,3,2,2,0,1,1,0,0,0
208162271,208161729,42042859,60.1877325,24.832678599999998,0.025682291,-1.0055997,-4.453127,0.2201162,0.143384,-2.0861626e-07,-0.16150905,0.054465022,-1.0535069,-1.0773445,-0.025945434,0.04994766,0.011585729,0.3442814,0.099947214,-1.8650303,-2.158838,0.033004284,-0.021004202,0.00729649,6.327851e-05,-9.646487,1.7374058,0.24470116,0.23099604,0.11425674,0.064978555,inf,inf,inf,inf,1,1,1,1,3,2,3,2,2,0,1,1,0,0,0
208262233,208261729,42042859,60.1877325,24.832678599999998,0.015369773,-1.0013375,-4.5621605,0.2201162,0.143384,-2.0861626e-07,-0.13053013,0.049022216,-1.0678741,-1.0932218,-0.025945434,0.04994766,0.011585729,1.979552,1.452401,-1.3245629,-2.1714113,0.032601982,-0.033613134,0.00729649,6.3278974e-05,-9.646487,1.8464394,0.24476649,0.2312925,0.11293219,0.06501734,inf,inf,inf,inf,1,1,1,1,3,2,3,2,2,0,1,1,0,0,0
208362237,208361729,42042859,60.1877325,24.832678599999998,0.007935462,-0.99911845,-4.6735377,0.2201162,0.143384,-2.0861626e-07,-0.110516526,0.030357867,-1.0714473,-1.0989648,-0.025945434,0.04994766,0.011585729,0.26571938,0.93277085,0.95293355,-2.2080407,0.089993685,-0.04378678,-0.026442554,6.326403e-05,-9.646487,1.9578166,0.24481925,0.23108198,0.11219361,0.0649994,inf,inf,inf,inf,1,1,1,1,3,2,3,2,3,0,1,1,0,0,0
208462242,208461729,42042859,60.1877325,24.832678599999998,0.0013013076,-0.9980741,-4.7864947,0.2201162,0.143384,-2.0861626e-07,-0.09090089,0.007666414,-1.0760525,-1.105645,-0.025945434,0.04994766,0.011585729,-0.57300234,0.34423065,3.7417948,-2.2124639,0.06848247,-0.049337536,-0.026442554,6.3187996e-05,-9.646487,2.0707736,0.2448909,0.23137733,0.11229357,0.06503559,inf,inf,inf,inf,1,1,1,1,3,2,3,2,3,0,1,1,0,0,0
208562248,208561729,42042859,60.1877325,24.832678599999998,-0.007824616,-0.998033,-4.900877,0.2201162,0.143384,-2.0861626e-07,-0.086869776,-0.031564325,-1.0883758,-1.1199682,-0.025945434,0.04994766,0.011585729,-0.047115445,-0.5998323,4.1617813,-2.2132647,0.0671624,-0.051952746,-0.026442554,6.317461e-05,-9.646487,2.1851559,0.24493745,0.2311652,0.11246569,0.06501474,inf,inf,inf,inf,1,1,1,1,3,2,3,2,3,0,1,1,0,0,0
208662271,208661729,42042859,60.1877325,24.832678599999998,-0.020609476,-1.0032439,-5.017242,0.2201162,0.143384,-2.0861626e-07,-0.10155829,-0.0705981,-1.101479,-1.1354282,-0.025945434,0.04994766,0.011585729,-0.97292626,0.04555272,3.560346,-2.2118232,0.06620843,-0.0513532,-0.026442554,6.316694e-05,-9.646487,2.3015208,0.24498095,0.23095044,0.112960376,0.064992845,inf,inf,inf,inf,1,1,1,1,3,2,3,2,3,0,1,1,0,0,0
208762235,208761729,42042859,60.1877325,24.832678599999998,-0.031543933,-1.0126095,-5.136785,0.2201162,0.143384,-2.0861626e-07,-0.13096054,-0.12960994,-1.1277491,-1.1654116,-0.025945434,0.04994766,0.011585729,-1.3753635,-3.1523385,2.5923765,-2.2110379,0.06519627,-0.05206647,-0.026442554,6.317365e-05,-9.646487,2.421064,0.2450456,0.23124422,0.11411453,0.06503008,inf,inf,inf,inf,1,1,1,1,3,2,3,2,3,0,1,1,0,0,0
208862264,208861729,42042859,60.1877325,24.832678599999998,-0.044276338,-1.0242721,-5.2596354,0.2201162,0.143384,-2.0861626e-07,-0.17739315,-0.18700345,-1.1644453,-1.2062835,-0.025945434,0.04994766,0.011585729,-0.88736033,0.73354614,-2.10621,-2.2070498,0.064276055,-0.051282223,-0.026442554,6.319401e-05,-9.646487,2.5439143,0.24510752,0.2310358,0.11490402,0.065017104,inf,inf,inf,inf,1,1,1,1,3,2,3,2,3,0,1,1,0,0,0
208962254,208961729,42042859,60.1877325,24.832678599999998,-0.065299325,-1.0419968,-5.3856277,0.2201162,0.143384,-2.0861626e-07,-0.22998184,-0.2552706,-1.1884271,-1.2344631,-0.025945434,0.04994766,0.011585729,-1.4326208,-0.4159679,-3.5701196,-2.202054,0.06310809,-0.04803853,-0.026442554,6.322279e-05,-9.646487,2.6699066,0.24516645,0.23132616,0.11666324,0.065055326,inf,inf,inf,inf,1,1,1,1,3,2,3,2,3,0,1,1,0,0,0
209062239,209061729,42042859,60.1877325,24.832678599999998,-0.09414265,-1.0693638,-5.513922,0.2201162,0.143384,-2.0861626e-07,-0.29362628,-0.3366263,-1.2108008,-1.2606281,-0.025945434,0.04994766,0.011585729,0.3576928,0.12583117,-0.50288385,-2.196215,0.061329693,-0.041317705,-0.026442554,6.326661e-05,-9.646487,2.798201,0.24520153,0.23110613,0.121989965,0.06503838,inf,inf,inf,inf,1,1,1,1,3,2,3,2,3,0,1,1,0,0,0
209162217,209161729,42042859,60.1877325,24.832678599999998,-0.12761903,-1.1074133,-5.645622,0.2201162,0.143384,-2.0861626e-07,-0.35825074,-0.41946664,-1.2383538,-1.2919385,-0.025945434,0.04994766,0.011585729,-0.34612983,0.0077280053,0.3864971,-2.1867418,0.058483165,-0.031842154,-0.026442554,6.334239e-05,-9.646487,2.9299006,0.24523991,0.23138653,0.12733388,0.06507429,inf,inf,inf,inf,1,1,1,1,3,2,3,2,3,0,1,1,0,0,0
209262203,209261729,42042859,60.1877325,24.832678599999998,-0.16371658,-1.1551483,-5.77946,0.2201162,0.143384,-2.0861626e-07,-0.41202405,-0.5146877,-1.2624865,-1.319297,-0.025945434,0.04994766,0.011585729,0.012139969,-0.9345497,-1.3648891,-2.1687562,0.05434762,-0.019050572,-0.026442554,6.346752e-05,-9.646487,3.0637388,0.24527591,0.2311657,0.1368371,0.06506202,inf,inf,inf,inf,1,1,1,1,3,2,3,2,3,0,1,1,0,0,0
209362224,209361729,42042859,60.1877325,24.832678599999998,-0.20404842,-1.2121679,-5.915714,0.2201162,0.143384,-2.0861626e-07,-0.46049747,-0.6069172,-1.2863816,-1.3460038,-0.025945434,0.04994766,0.011585729,-0.446696,-2.2151287,0.13854635,-2.1442337,0.049045492,-0.001412211,-0.026442554,6.364756e-05,-9.646487,3.1999927,0.24531077,0.23144838,0.143519,0.06510143,inf,inf,inf,inf,1,1,1,1,3,2,3,2,3,1,1,1,0,0,0
209462243,209461729,42042859,60.1877325,24.832678599999998,-0.24935433,-1.2819039,-6.054582,0.2201162,0.143384,-2.0861626e-07,-0.50553024,-0.70607734,-1.3080187,-1.370359,-0.025945434,0.04994766,0.011585729,-0.10817582,-0.4724235,-0.7046903,-2.1138134,0.043416698,0.018128077,-0.026442554,6.387895e-05,-9.646487,3.338861,0.24535295,0.2312295,0.15040958,0.06509217,inf,inf,inf,inf,1,1,1,1,3,2,3,2,3,1,1,1,0,0,0
209562227,209561729,42042859,60.1877325,24.832678599999998,-0.30241945,-1.3601059,-6.1953917,0.2201162,0.143384,-2.0861626e-07,-0.5699583,-0.8101195,-1.3307656,-1.3951261,-0.025945434,0.04994766,0.011585729,-1.9397067,-2.1293926,-0.69179404,-2.0874162,0.03777529,0.040118393,-0.026442554,6.4156426e-05,-9.646487,3.4796705,0.24539602,0.23151004,0.15482353,0.06513225,inf,inf,inf,inf,1,1,1,1,3,2,3,2,3,1,1,1,0,0,0
209662211,209661729,42042859,60.1877325,24.832678599999998,-0.3605431,-1.4478358,-6.337971,0.2201162,0.143384,-2.0861626e-07,-0.6284698,-0.9338152,-1.345006,-1.4108164,-0.025945434,0.04994766,0.011585729,-1.1661417,-1.9263405,-0.6701037,-2.0618517,0.032788843,0.06442029,-0.026442554,6.446653e-05,-9.646487,3.62225,0.24546818,0.2312981,0.15570024,0.0651261,inf,inf,inf,inf,1,1,1,1,3,2,3,2,3,1,1,1,0,0,0
209762200,209761729,42042859,60.1877325,24.832678599999998,-0.42499882,-1.548651,-6.4803934,0.2201162,0.143384,-2.0861626e-07,-0.699141,-1.0594556,-1.3504142,-1.4169233,-0.025945434,0.04994766,0.011585729,0.59051883,0.6110438,-1.2585166,-2.0356984,0.028220259,0.08866415,-0.026442554,6.479327e-05,-9.646487,3.7646723,0.24554132,0.23158357,0.1584229,0.06517383,inf,inf,inf,inf,1,1,1,1,3,2,3,2,3,1,1,1,0,0,0
209862209,209861729,42042859,60.1877325,24.832678599999998,-0.4972466,-1.6626161,-6.623876,0.2201162,0.143384,-2.0861626e-07,-0.7706756,-1.1855875,-1.3554301,-1.4227011,-0.025945434,0.04994766,0.011585729,0.22981875,-0.5231475,2.177064,-2.0155609,0.024015782,0.10687132,-0.026442554,6.513494e-05,-9.646487,3.908155,0.24561031,0.23136832,0.15873228,0.065168664,inf,inf,inf,inf,1,1,1,1,3,2,3,2,3,1,1,1,0,0,0
209962236,209961729,42042859,60.1877325,24.832678599999998,-0.57645077,-1.7908431,-6.768576,0.2201162,0.143384,-2.0861626e-07,-0.8399341,-1.3093221,-1.3548806,-1.4233905,-0.025945434,0.04994766,0.011585729,-1.0312283,-0.51613694,2.844662,-2.0013156,0.020244291,0.1186558,-0.026442554,6.5469016e-05,-9.646487,4.052855,0.24565299,0.23114339,0.16239232,0.065166004,inf,inf,inf,inf,1,1,1,1,3,2,3,2,3,1,1,1,0,0,0
210062207,210061729,42042859,60.1877325,24.832678599999998,-0.66283023,-1.9323585,-6.9143686,0.2201162,0.143384,-2.0861626e-07,-0.9079923,-1.4440907,-1.3652775,-1.4359256,-0.025945434,0.04994766,0.011585729,1.7379979,-1.8977414,-1.0326037,-1.989997,0.017050626,0.12720107,-0.026442554,6.580286e-05,-9.646487,4.1986475,0.24569386,0.23142102,0.16128197,0.06521014,inf,inf,inf,inf,1,1,1,1,3,2,3,2,3,1,1,1,0,0,0
210162264,210161729,42042859,60.1877325,24.832678599999998,-0.7564757,-2.0854309,-7.0616803,0.2201162,0.143384,-2.0861626e-07,-0.9679141,-1.5622332,-1.3714908,-1.4447844,-0.025945434,0.04994766,0.011585729,-0.91050404,-2.4299169,2.7578754,-1.9855022,0.014419931,0.13094129,-0.026442554,6.613098e-05,-9.646487,4.345959,0.24573453,0.23119311,0.1611224,0.065206155,inf,inf,inf,inf,1,1,1,1,3,2,3,2,3,1,1,1,0,0,0
210262248,210261729,42042859,60.1877325,24.832678599999998,-0.8549492,-2.2498682,-7.2111077,0.2201162,0.143384,-2.0861626e-07,-1.0406764,-1.6658275,-1.3926002,-1.4689668,-0.025945434,0.04994766,0.011585729,-3.048336,-1.279606,-1.3232754,-1.9847612,0.012289776,0.13008912,-0.026442554,6.6455475e-05,-9.646487,4.4953866,0.24580409,0.23147596,0.15852521,0.065257944,inf,inf,inf,inf,1,1,1,1,3,2,3,2,3,1,1,1,0,0,0
210362252,210361729,42042859,60.1877325,24.832678599999998,-0.9576773,-2.4249227,-7.3609614,0.2201162,0.143384,-2.0861626e-07,-1.0899422,-1.769334,-1.3881929,-1.4671241,-0.025945434,0.04994766,0.011585729,-1.9265275,-0.9045965,-2.26672,-1.9852285,0.010565398,0.1253557,-0.026442554,6.677584e-05,-9.646487,4.6452403,0.24584189,0.23124796,0.15516974,0.06524768,inf,inf,inf,inf,1,1,1,1,3,2,3,2,3,1,1,1,0,0,0
210462451,210461729,42042859,60.1877325,24.832678599999998,-1.0667988,-2.6082435,-7.509179,0.2201162,0.143384,-2.0861626e-07,-1.1410675,-1.8706808,-1.3719059,-1.4520881,-0.025945434,0.04994766,0.011585729,-2.3823385,-2.5640616,2.6632187,-1.9877404,0.009199755,0.12033677,-0.026442554,6.709383e-05,-9.646487,4.793458,0.24587949,0.23152184,0.15279044,0.06529915,inf,inf,inf,inf,1,1,1,1,3,2,3,2,3,1,1,1,0,0,0
210562230,210561729,42042859,60.1877325,24.832678599999998,-1.1815653,-2.8028185,-7.65626,0.2201162,0.143384,-2.0861626e-07,-1.1752793,-1.9802959,-1.3746808,-1.4558872,-0.025945434,0.04994766,0.011585729,-0.85526717,-2.0950668,-0.2304064,-1.985984,0.008142953,0.12212725,-0.026442554,6.742671e-05,-9.646487,4.940539,0.2459443,0.23130088,0.14899696,0.065296076,inf,inf,inf,inf,1,1,1,1,3,2,3,2,3,1,1,1,0,0,0
210662232,210661729,42042859,60.1877325,24.832678599999998,-1.3022035,-3.0110097,-7.8018117,0.2201162,0.143384,-2.0861626e-07,-1.2037066,-2.0940304,-1.3698782,-1.4510807,-0.025945434,0.04994766,0.011585729,0.1997155,0.13610436,-0.6066958,-1.9773178,0.007290905,0.13309266,-0.026442554,6.7766145e-05,-9.646487,5.0860906,0.24601369,0.23158051,0.14544578,0.06534228,inf,inf,inf,inf,1,1,1,1,3,2,3,2,3,1,1,1,0,0,0
210762281,210761729,42042859,60.1877325,24.832678599999998,-1.4242408,-3.2303843,-7.947307,0.2201162,0.143384,-2.0861626e-07,-1.2190356,-2.1943002,-1.3671823,-1.4486531,-0.025945434,0.04994766,0.011585729,-0.52976865,2.5792785,0.57904106,-1.9652921,0.0065887035,0.14573218,-0.026442554,6.810779e-05,-9.646487,5.231586,0.24608135,0.23135984,0.1434658,0.06533597,inf,inf,inf,inf,1,1,1,1,3,2,3,2,3,1,1,1,0,0,0
210862231,210861729,42042859,60.1877325,24.832678599999998,-1.5464767,-3.4601269,-8.094855,0.2201162,0.143384,-2.0861626e-07,-1.2050973,-2.302571,-1.3961838,-1.4786766,-0.025945434,0.04994766,0.011585729,-1.0825098,0.08205717,-0.7400418,-1.9528399,0.0060096886,0.15722342,-0.026442554,6.8458154e-05,-9.646487,5.379134,0.24614915,0.23164007,0.1411972,0.065384746,inf,inf,inf,inf,1,1,1,1,3,2,3,2,3,1,1,1,0,0,0
210962429,210961729,42042859,60.1877325,24.832678599999998,-1.6698993,-3.6997888,-8.248129,0.2201162,0.143384,-2.0861626e-07,-1.2033521,-2.4036856,-1.4550029,-1.5389962,-0.025945434,0.04994766,0.011585729,3.331364,-1.3120157,0.5546471,-1.9429005,0.005508829,0.16583142,-0.026442554,6.880361e-05,-9.646487,5.5324078,0.24620685,0.23141976,0.13854209,0.06537281,inf,inf,inf,inf,1,1,1,1,3,2,3,2,3,1,1,1,0,0,0
211262237,211261729,42042859,60.1877325,24.832678599999998,-2.051443,-4.4554095,-8.731368,0.2201162,0.143384,-2.0861626e-07,-1.2286606,-2.5696197,-1.5474195,-1.63316,-0.025945434,0.04994766,0.011585729,1.9856132,-1.5878234,0.60275847,-1.9317278,0.004503038,0.1816984,-0.026442554,6.9841575e-05,-9.646487,6.015647,0.24636725,0.23124877,0.1309531,0.06535732,inf,inf,inf,inf,1,1,1,1,3,2,3,2,3,1,1,1,0,0,0
211362199,211361729,42042859,60.1877325,24.832678599999998,-2.179441,-4.715923,-8.896268,0.2201162,0.143384,-2.0861626e-07,-1.2519836,-2.5939684,-1.5839144,-1.6691602,-0.025945434,0.04994766,0.011585729,-2.3230944,-1.2046595,1.0240442,-1.9312606,0.0042922245,0.1834985,-0.026442554,7.018571e-05,-9.646487,6.1805468,0.24640764,0.23152499,0.12706527,0.065372236,inf,inf,inf,inf,1,1,1,1,3,2,3,2,3,1,1,1,0,0,0
211462372,211461729,42042859,60.1877325,24.832678599999998,-2.3059604,-4.9811215,-9.064854,0.2201162,0.143384,-2.0861626e-07,-1.2410244,-2.6227257,-1.6287361,-1.713426,-0.025945434,0.04994766,0.011585729,-2.7401304,2.3197196,-0.50270426,-1.9291774,0.0041168276,0.18629134,-0.026442554,7.052992e-05,-9.646487,6.3491325,0.24647108,0.23130533,0.124946065,0.065343656,inf,inf,inf,inf,1,1,1,1,3,2,3,2,3,1,1,1,0,0,0
211562201,211561729,42042859,60.1877325,24.832678599999998,-2.4311597,-5.2482224,-9.238852,0.2201162,0.143384,-2.0861626e-07,-1.221621,-2.6451318,-1.7026254,-1.786339,-0.025945434,0.04994766,0.011585729,-1.0543165,0.35236308,-1.806734,-1.9306331,0.0039745015,0.1847853,-0.026442554,7.087487e-05,-9.646487,6.5231304,0.2465013,0.23157993,0.12297267,0.065366305,inf,inf,inf,inf,1,1,1,1,3,2,3,2,3,1,1,1,0,0,0
211662203,211661729,42042859,60.1877325,24.832678599999998,-2.5537918,-5.5151696,-9.419058,0.2201162,0.143384,-2.0861626e-07,-1.1996583,-2.6460145,-1.7520128,-1.8345165,-0.025945434,0.04994766,0.011585729,-2.7711065,1.4811498,0.39065313,-1.9342746,0.0038661526,0.18058856,-0.026442554,7.1209695e-05,-9.646487,6.7033367,0.24653059,0.23135221,0.12025997,0.065324575,inf,inf,inf,inf,1,1,1,1,3,2,3,2,3,1,1,1,0,0,0
211762241,211761729,42042859,60.1877325,24.832678599999998,-2.6731453,-5.7820425,-9.602842,0.2201162,0.143384,-2.0861626e-07,-1.1629982,-2.6243198,-1.7643895,-1.8454757,-0.025945434,0.04994766,0.011585729,0.14874801,3.938296,1.4984531,-1.9407953,0.0037831382,0.17342377,-0.026442554,7.152614e-05,-9.646487,6.887121,0.24658711,0.23163445,0.118322715,0.06534475,inf,inf,inf,inf,1,1,1,1,3,2,3,2,3,1,1,1,0,0,0
211862206,211861729,42042859,60.1877325,24.832678599999998,-2.7908833,-6.0487843,-9.781056,0.2201162,0.143384,-2.0861626e-07,-1.1427215,-2.6104753,-1.658463,-1.7375772,-0.025945434,0.04994766,0.011585729,-1.142442,0.9555386,1.9631773,-1.9487915,0.0037300913,0.16505268,-0.026442554,7.1805225e-05,-9.646487,7.0653353,0.24662387,0.23140627,0.11644765,0.06530372,inf,inf,inf,inf,1,1,1,1,3,2,3,2,3,1,1,1,0,0,0
211962381,211961729,42042859,60.1877325,24.832678599999998,-2.9059427,-6.3136683,-9.943417,0.2201162,0.143384,-2.0861626e-07,-1.1151501,-2.5962944,-1.4575478,-1.5345885,-0.025945434,0.04994766,0.011585729,1.8449571,0.8757769,2.226863,-1.9562669,0.0036910807,0.15724152,-0.026442554,7.205096e-05,-9.646487,7.2276955,0.24664882,0.23167886,0.11441142,0.06531138,inf,inf,inf,inf,1,1,1,1,3,2,3,2,3,1,1,1,0,0,0
212062247,212061729,42042859,60.1877325,24.832678599999998,-3.0206404,-6.5760026,-10.08188,0.2201162,0.143384,-2.0861626e-07,-1.1040121,-2.5908744,-1.1644983,-1.24019,-0.025945434,0.04994766,0.011585729,4.2521844,-2.6926012,3.9031818,-1.9617335,0.0036661606,0.15167888,-0.026442554,7.229719e-05,-9.646487,7.3661585,0.24669242,0.23145789,0.11285449,0.0652788,inf,inf,inf,inf,1,1,1,1,3,2,3,2,3,1,1,1,0,0,0
212162200,212161729,42042859,60.1877325,24.832678599999998,-3.1379924,-6.8375096,-10.190009,0.2201162,0.143384,-2.0861626e-07,-1.11575,-2.5659268,-0.8635915,-0.9387513,-0.025945434,0.04994766,0.011585729,-0.18777598,5.589266,2.835686,-1.9658688,0.0036518208,0.14803849,-0.026442554,7.2523886e-05,-9.646487,7.474288,0.24671935,0.23173308,0.11137387,0.06528948,inf,inf,inf,inf,1,1,1,1,3,2,3,2,3,1,1,1,0,0,0
212262256,212261729,42042859,60.1877325,24.832678599999998,-3.253864,-7.095804,-10.274049,0.2201162,0.143384,-2.0861626e-07,-1.0946286,-2.5365312,-0.6659597,-0.7417264,-0.025945434,0.04994766,0.011585729,1.3644328,5.756813,2.1421967,-1.968637,0.0036414233,0.14607933,-0.026442554,7.2774536e-05,-9.646487,7.5583277,0.24674079,0.2315118,0.11006946,0.06525312,inf,inf,inf,inf,1,1,1,1,3,2,3,2,3,1,1,1,0,0,0
212362264,212361729,42042859,60.1877325,24.832678599999998,-3.362599,-7.34811,-10.346445,0.2201162,0.143384,-2.0861626e-07,-1.0689181,-2.526533,-0.5942248,-0.67249924,-0.025945434,0.04994766,0.011585729,1.0905408,-1.4696841,-0.66285527,-1.9694241,0.0036359078,0.1454476,-0.026442554,7.3050076e-05,-9.646487,7.630724,0.24675907,0.23129089,0.10892561,0.06522172,inf,inf,inf,inf,1,1,1,1,3,2,3,2,3,1,1,1,0,0,0
212462415,212461729,42042859,60.1877325,24.832678599999998,-3.467581,-7.5954723,-10.420112,0.2201162,0.143384,-2.0861626e-07,-1.0352919,-2.4639943,-0.60848236,-0.6922389,-0.025945434,0.04994766,0.011585729,-0.44018027,2.0841124,-0.07901663,-1.9663643,0.0036321585,0.1483834,-0.026442554,7.3318915e-05,-9.646487,7.7043905,0.24680291,0.2315889,0.10837427,0.06524558,inf,inf,inf,inf,1,1,1,1,3,2,3,2,3,1,1,1,0,0,0
212562261,212561729,42042859,60.1877325,24.832678599999998,-3.5678527,-7.837313,-10.499436,0.2201162,0.143384,-2.0861626e-07,-0.97845167,-2.4030511,-0.63437384,-0.72521,-0.025945434,0.04994766,0.011585729,-0.83062005,-2.4875958,0.7474972,-1.9632341,0.0036290274,0.15135697,-0.026442554,7.3560426e-05,-9.646487,7.7837152,0.24684152,0.23138762,0.108418174,0.06522104,inf,inf,inf,inf,1,1,1,1,3,2,3,2,3,1,1,1,0,0,0
212662240,212661729,42042859,60.1877325,24.832678599999998,-3.6640162,-8.070589,-10.579673,0.2201162,0.143384,-2.0861626e-07,-0.91516036,-2.2843797,-0.6134255,-0.7121799,-0.025945434,0.04994766,0.011585729,1.2546076,3.5022426,-0.6516861,-1.9590625,0.0036236583,0.15532786,-0.026442554,7.3706324e-05,-9.646487,7.8639517,0.24688616,0.2316949,0.109120786,0.065242335,inf,inf,inf,inf,1,1,1,1,3,2,3,2,3,1,1,1,0,0,0
212762230,212761729,42042859,60.1877325,24.832678599999998,-3.7557542,-8.292259,-10.657262,0.2201162,0.143384,-2.0861626e-07,-0.8415942,-2.126218,-0.59810746,-0.703894,-0.025945434,0.04994766,0.011585729,0.7027583,4.0791144,0.90213025,-1.9571611,0.0036091846,0.1569924,-0.026442554,7.368876e-05,-9.646487,7.9415407,0.24691255,0.2314968,0.11006987,0.06521271,inf,inf,inf,inf,1,1,1,1,3,2,3,2,3,1,1,1,0,0,0
213062264,213061729,42042859,60.1877325,24.832678599999998,-3.9881046,-8.859418,-10.902086,0.2201162,0.143384,-2.0861626e-07,-0.5727286,-1.5937357,-0.6123794,-0.7353604,-0.025945434,0.04994766,0.011585729,-2.0997832,1.702909,0.7089516,-1.958093,0.00344387,0.15675072,-0.026442554,7.2686846e-05,-9.646487,8.186365,0.24713643,0.23199926,0.11989694,0.065284915,inf,inf,inf,inf,1,1,1,1,3,2,3,2,3,1,1,1,0,0,0
213162245,213161729,42042859,60.1877325,24.832678599999998,-4.045256,-9.014318,-10.977394,0.2201162,0.143384,-2.0861626e-07,-0.47826776,-1.4100385,-0.5706784,-0.6959117,-0.025945434,0.04994766,0.011585729,2.796773,3.7030702,1.3670079,-1.9560384,0.0033217785,0.1601435,-0.026442554,7.195205e-05,-9.646487,8.261673,0.2472802,0.23187232,0.12461065,0.065298215,inf,inf,inf,inf,1,1,1,1,3,2,3,2,3,1,1,1,0,0,0
213262211,213261729,42042859,60.1877325,24.832678599999998,-4.0935254,-9.15497,-11.046973,0.2201162,0.143384,-2.0861626e-07,-0.4081698,-1.2658737,-0.53183496,-0.6578596,-0.025945434,0.04994766,0.011585729,0.43820515,0.08693732,0.28527883,-1.9522187,0.0031703059,0.16531196,-0.026442554,7.11177e-05,-9.646487,8.331252,0.24749106,0.23228115,0.12877057,0.06539298,inf,inf,inf,inf,1,1,1,1,3,2,3,2,3,1,1,1,0,0,0
213362239,213361729,42042859,60.1877325,24.832678599999998,-4.134967,-9.279466,-11.113991,0.2201162,0.143384,-2.0861626e-07,-0.3484054,-1.1071726,-0.543581,-0.66874135,-0.025945434,0.04994766,0.011585729,-0.5428184,2.6169405,0.29119778,-1.9464037,0.002985109,0.17228709,-0.026442554,7.013875e-05,-9.646487,8.39827,0.24760784,0.23214956,0.1324339,0.06541045,inf,inf,inf,inf,1,1,1,1,3,2,3,2,3,1,1,1,0,0,0
213462379,213461729,42042859,60.1877325,24.832678599999998,-4.1669283,-9.389685,-11.181134,0.2201162,0.143384,-2.0861626e-07,-0.28768134,-0.971261,-0.55572724,-0.6789943,-0.025945434,0.04994766,0.011585729,-0.053876992,2.567992,-1.3389164,-1.9410422,0.002784751,0.17910564,-0.026442554,6.9143054e-05,-9.646487,8.465413,0.24767818,0.23250964,0.1348599,0.065459095,inf,inf,inf,inf,1,1,1,1,3,2,3,2,3,1,1,1,0,0,0
213562236,213561729,42042859,60.1877325,24.832678599999998,-4.190777,-9.487213,-11.246932,0.2201162,0.143384,-2.0861626e-07,-0.23413134,-0.8440628,-0.5617724,-0.6817187,-0.025945434,0.04994766,0.011585729,0.4022906,0.5030873,-1.6670051,-1.9383732,0.0025848222,0.18476407,-0.026442554,6.82157e-05,-9.646487,8.531211,0.24775621,0.23236784,0.13663018,0.06546342,inf,inf,inf,inf,1,1,1,1,3,2,3,2,3,1,1,1,0,0,0
213662227,213661729,42042859,60.1877325,24.832678599999998,-4.2111964,-9.571173,-11.311398,0.2201162,0.143384,-2.0861626e-07,-0.18752602,-0.72464603,-0.54694784,-0.662682,-0.025945434,0.04994766,0.011585729,2.5076306,-0.57308954,1.8671316,-1.9355645,0.002387333,0.18964879,-0.026442554,6.735287e-05,-9.646487,8.595676,0.24782407,0.23222323,0.13753118,0.06546452,inf,inf,inf,inf,1,1,1,1,3,2,3,2,3,1,1,1,0,0,0
213762200,213761729,42042859,60.1877325,24.832678599999998,-4.229228,-9.643667,-11.37453,0.2201162,0.143384,-2.0861626e-07,-0.1549159,-0.63316566,-0.54380983,-0.6552277,-0.025945434,0.04994766,0.011585729,1.5843447,-1.2240517,-1.4510767,-1.9314564,0.0022043118,0.19447044,-0.026442554,6.659817e-05,-9.646487,8.658809,0.24790043,0.23259518,0.13712516,0.065508835,inf,inf,inf,inf,1,1,1,1,3,2,3,2,3,1,1,1,0,0,0
213862237,213861729,42042859,60.1877325,24.832678599999998,-4.2423472,-9.706207,-11.436514,0.2201162,0.143384,-2.0861626e-07,-0.12443735,-0.53731275,-0.55652785,-0.66249526,-0.025945434,0.04994766,0.011585729,0.61140895,-0.64944136,-1.355155,-1.9276478,0.002044818,0.19875434,-0.026442554,6.599892e-05,-9.646487,8.720793,0.24801351,0.23247316,0.13597652,0.06550085,inf,inf,inf,inf,1,1,1,1,3,2,3,2,3,1,1,1,0,0,0
213962386,213961731,42042859,60.1877325,24.832678599999998,-4.2501826,-9.758284,-11.497922,0.2201162,0.143384,-2.0861626e-07,-0.09755762,-0.44253144,-0.56911016,-0.6686304,-0.025945434,0.04994766,0.011585729,-0.5539719,0.92858565,-2.6577752,-1.924538,0.001901381,0.20258033,-0.026442554,6.548476e-05,-9.646487,8.782201,0.24810947,0.23286146,0.13470812,0.0655379,inf,inf,inf,inf,1,1,1,1,3,2,3,2,3,1,1,1,0,0,0
214062207,214061729,42042859,60.1877325,24.832678599999998,-4.2531943,-9.8011,-11.55912,0.2201162,0.143384,-2.0861626e-07,-0.059402607,-0.3543745,-0.5888408,-0.68143976,-0.025945434,0.04994766,0.011585729,0.89748335,2.630366,-3.9674382,-1.9227929,0.0017746949,0.20577984,-0.026442554,6.5074695e-05,-9.646487,8.843399,0.24821687,0.23274347,0.133288,0.065519005,inf,inf,inf,inf,1,1,1,1,3,2,3,2,3,1,1,1,0,0,0
214162219,214161729,42042859,60.1877325,24.832678599999998,-4.2542095,-9.834199,-11.62011,0.2201162,0.143384,-2.0861626e-07,-0.027155649,-0.27866864,-0.60052043,-0.68564814,-0.025945434,0.04994766,0.011585729,0.21360123,3.3677347,-1.8609735,-1.9211313,0.0016649165,0.20855898,-0.026442554,6.47517e-05,-9.646487,8.904388,0.24833515,0.2331451,0.13211134,0.06556066,inf,inf,inf,inf,1,1,1,1,3,2,3,2,3,1,1,1,0,0,0
214262231,214261729,42042859,60.1877325,24.832678599999998,-4.251202,-9.858947,-11.681363,0.2201162,0.143384,-2.0861626e-07,0.0048600174,-0.21772969,-0.61012,-0.6877427,-0.025945434,0.04994766,0.011585729,0.7037458,0.95557916,-2.686205,-1.9196528,0.0015765708,0.21103984,-0.026442554,6.4574204e-05,-9.646487,8.965642,0.24868819,0.2331204,0.13139036,0.06560687,inf,inf,inf,inf,1,1,1,1,3,2,3,2,3,1,1,1,0,0,0
214362263,214361729,42042859,60.1877325,24.832678599999998,-4.243042,-9.875657,-11.743346,0.2201162,0.143384,-2.0861626e-07,0.037189104,-0.1549419,-0.6174336,-0.6878037,-0.025945434,0.04994766,0.011585729,1.543391,1.3031309,-0.5783858,-1.9188365,0.0014970717,0.21313897,-0.026442554,6.443041e-05,-9.646487,9.027625,0.24899544,0.2336012,0.13016336,0.06568211,inf,inf,inf,inf,1,1,1,1,3,2,3,2,3,1,1,1,0,0,0
214462422,214461729,42042859,60.1877325,24.832678599999998,-4.23547,-9.885694,-11.805899,0.2201162,0.143384,-2.0861626e-07,0.045793038,-0.10540149,-0.6275603,-0.6915047,-0.025945434,0.04994766,0.011585729,0.010705323,0.993249,-3.34541,-1.9186212,0.0014224875,0.21417378,-0.026442554,6.426754e-05,-9.646487,9.090178,0.2491399,0.23351148,0.12878008,0.06566382,inf,inf,inf,inf,1,1,1,1,3,2,3,2,3,1,1,1,0,0,0
214562230,214561729,42042859,60.1877325,24.832678599999998,-4.2299323,-9.889851,-11.86927,0.2201162,0.143384,-2.0861626e-07,0.05780967,-0.06415492,-0.6298218,-0.68828577,-0.025945434,0.04994766,0.011585729,-2.2845552,0.8725,-1.7845275,-1.9179425,0.0013648615,0.21430193,-0.026442554,6.42391e-05,-9.646487,9.153549,0.24959125,0.2340489,0.1278687,0.065769516,inf,inf,inf,inf,1,1,1,1,3,2,3,2,3,1,1,1,0,0,0
214662273,214661729,42042859,60.1877325,24.832678599999998,-4.22313,-9.891404,-11.932229,0.2201162,0.143384,-2.0861626e-07,0.06923956,-0.047378927,-0.6284129,-0.6811738,-0.025945434,0.04994766,0.011585729,1.0682666,-2.6059725,-1.0266622,-1.9166418,0.001311812,0.21498992,-0.026442554,6.4199296e-05,-9.646487,9.216508,0.24991976,0.2340345,0.12665834,0.0657898,inf,inf,inf,inf,1,1,1,1,3,2,3,2,3,1,1,1,0,0,0
214762231,214761729,42042859,60.1877325,24.832678599999998,-4.2195096,-9.890752,-11.994027,0.2201162,0.143384,-2.0861626e-07,0.07162985,-0.028679458,-0.625788,-0.6722065,-0.025945434,0.04994766,0.011585729,-0.2569525,-1.5717441,-0.70097244,-1.9156467,0.0012656741,0.21497631,-0.026442554,6.416858e-05,-9.646487,9.278306,0.2502256,0.23453651,0.12498323,0.0658391,inf,inf,inf,inf,1,1,1,1,3,2,3,2,3,1,1,1,0,0,0
214862244,214861729,42042859,60.1877325,24.832678599999998,-4.214936,-9.889715,-12.053979,0.2201162,0.143384,-2.0861626e-07,0.07378538,-0.0412116,-0.62134916,-0.6608171,-0.025945434,0.04994766,0.011585729,0.33682975,-0.4891255,-1.5693309,-1.9157126,0.0012327932,0.21379004,-0.026442554,6.426842e-05,-9.646487,9.338258,0.2509357,0.23465788,0.124326736,0.06593979,inf,inf,inf,inf,1,1,1,1,3,2,3,2,3,1,1,1,0,0,0
214962461,214961729,42042859,60.1877325,24.832678599999998,-4.2051415,-9.889236,-12.113199,0.2201162,0.143384,-2.0861626e-07,0.08914727,-0.03353273,-0.63365024,-0.6659861,-0.025945434,0.04994766,0.011585729,1.428483,-0.80815023,-2.1382341,-1.9179112,0.0012016173,0.21122183,-0.026442554,6.4301275e-05,-9.646487,9.397478,0.25140494,0.23470376,0.12303009,0.06597145,inf,inf,inf,inf,1,1,1,1,3,2,3,2,3,1,1,1,0,0,0
215062246,215061729,42042859,60.1877325,24.832678599999998,-4.1956425,-9.889863,-12.171582,0.2201162,0.143384,-2.0861626e-07,0.10043716,-0.024633136,-0.6265052,-0.6517469,-0.025945434,0.04994766,0.011585729,-0.06918898,1.1753753,-1.8045561,-1.9235607,0.0011742712,0.20526512,-0.026442554,6.43323e-05,-9.646487,9.455861,0.25177202,0.23524967,0.12171074,0.06603227,inf,inf,inf,inf,1,1,1,1,3,2,3,2,3,1,1,1,0,0,0
215162261,215161729,42042859,60.1877325,24.832678599999998,-4.1854224,-9.889938,-12.228579,0.2201162,0.143384,-2.0861626e-07,0.11505676,-0.005589068,-0.61949575,-0.6382756,-0.025945434,0.04994766,0.011585729,2.1681821,1.9068639,-0.41896048,-1.9309072,0.0011540017,0.19780973,-0.026442554,6.4434906e-05,-9.646487,9.512857,0.25241026,0.23536338,0.12092291,0.06609525,inf,inf,inf,inf,1,1,1,1,3,2,3,2,3,1,1,1,0,0,0
215262203,215261729,42042859,60.1877325,24.832678599999998,-4.1734004,-9.887237,-12.285786,0.2201162,0.143384,-2.0861626e-07,0.09214994,0.04639821,-0.6296998,-0.6424592,-0.025945434,0.04994766,0.011585729,-1.5399421,5.2790074,-0.40112603,-1.9406639,0.0011357057,0.1883261,-0.026442554,6.449693e-05,-9.646487,9.570065,0.25288734,0.23596235,0.119993776,0.0661769,inf,inf,inf,inf,1,1,1,1,3,2,3,2,3,1,1,1,0,0,0
215362196,215361729,42042859,60.1877325,24.832678599999998,-4.161644,-9.879789,-12.343587,0.2201162,0.143384,-2.0861626e-07,0.08677265,0.06430123,-0.65356034,-0.6605579,-0.025945434,0.04994766,0.011585729,-1.1052519,-2.4386473,-1.2664282,-1.9450021,0.001121443,0.18439585,-0.026442554,6.4623004e-05,-9.646487,9.627866,0.253574,0.23610386,0.119963005,0.06626982,inf,inf,inf,inf,1,1,1,1,3,2,3,2,3,1,1,1,0,0,0
215462373,215461729,42042859,60.1877325,24.832678599999998,-4.1472015,-9.867131,-12.404276,0.2201162,0.143384,-2.0861626e-07,0.097806424,0.12113922,-0.6674958,-0.6687579,-0.025945434,0.04994766,0.011585729,1.1922252,1.3831244,0.024606097,-1.9416307,0.0011099769,0.1884912,-0.026442554,6.4781416e-05,-9.646487,9.688555,0.25446635,0.23685102,0.120180294,0.066461414,inf,inf,inf,inf,1,1,1,1,3,2,3,2,3,1,1,1,0,0,0
215562201,215561729,42042859,60.1877325,24.832678599999998,-4.1311817,-9.848741,-12.463323,0.2201162,0.143384,-2.0861626e-07,0.11072211,0.13712941,-0.63569665,-0.6317987,-0.025945434,0.04994766,0.011585729,-0.9188136,-5.2265263,-1.1815714,-1.9387491,0.001097787,0.19203772,-0.026442554,6.483079e-05,-9.646487,9.7476015,0.25488257,0.23691829,0.11991938,0.06647898,inf,inf,inf,inf,1,1,1,1,3,2,3,2,3,1,1,1,0,0,0
215662211,215661729,42042859,60.1877325,24.832678599999998,-4.113992,-9.829084,-12.519884,0.2201162,0.143384,-2.0861626e-07,0.15138502,0.14185758,-0.60555214,-0.5974127,-0.025945434,0.04994766,0.011585729,-0.57889515,-3.265616,2.0335314,-1.934676,0.0010879632,0.19690752,-0.026442554,6.4943146e-05,-9.646487,9.804163,0.25557318,0.23761554,0.11986472,0.06661941,inf,inf,inf,inf,1,1,1,1,3,2,3,2,3,1,1,1,0,0,0
215762197,215761729,42042859,60.1877325,24.832678599999998,-4.093929,-9.809204,-12.576251,0.2201162,0.143384,-2.0861626e-07,0.13658303,0.12523782,-0.6134883,-0.60182136,-0.025945434,0.04994766,0.011585729,-3.91942,-0.77587366,-2.0835514,-1.9376223,0.0010782669,0.19458069,-0.026442554,6.5009066e-05,-9.646487,9.86053,0.25609812,0.23772669,0.11935674,0.06665557,inf,inf,inf,inf,1,1,1,1,3,2,3,2,3,1,1,1,0,0,0
215862203,215861729,42042859,60.1877325,24.832678599999998,-4.076934,-9.788862,-12.631606,0.2201162,0.143384,-2.0861626e-07,0.14677766,0.17074464,-0.6068942,-0.59230804,-0.025945434,0.04994766,0.011585729,3.6633656,4.9158583,-1.3291637,-1.9513072,0.0010704166,0.17987655,-0.026442554,6.509024e-05,-9.646487,9.915885,0.25660878,0.23838346,0.11904299,0.066754535,inf,inf,inf,inf,1,1,1,1,3,2,3,2,3,1,1,1,0,0,0
215962444,215961730,42042859,60.1877325,24.832678599999998,-4.063414,-9.76745,-12.686712,0.2201162,0.143384,-2.0861626e-07,0.0869119,0.18247247,-0.6104789,-0.593158,-0.025945434,0.04994766,0.011585729,-0.37448627,0.45362365,1.5844172,-1.9634314,0.0010644925,0.16721815,-0.026442554,6.519889e-05,-9.646487,9.970991,0.25730664,0.23855765,0.11876061,0.06682814,inf,inf,inf,inf,1,1,1,1,3,2,3,2,3,1,1,1,0,0,0
216062206,216061729,42042859,60.1877325,24.832678599999998,-4.052208,-9.746042,-12.741362,0.2201162,0.143384,-2.0861626e-07,0.052318666,0.15638809,-0.58189213,-0.56214285,-0.025945434,0.04994766,0.011585729,-0.19088118,-2.0336187,0.877819,-1.9693002,0.0010598355,0.16304356,-0.026442554,6.5348984e-05,-9.646487,10.0256405,0.2581293,0.23932642,0.11881311,0.06699257,inf,inf,inf,inf,1,1,1,1,3,2,3,2,3,1,1,1,0,0,0
216162201,216161729,42042859,60.1877325,24.832678599999998,-4.0415916,-9.728515,-12.793153,0.2201162,0.143384,-2.0861626e-07,0.028243586,0.11211262,-0.54460764,-0.52280855,-0.025945434,0.04994766,0.011585729,-2.7370694,-0.8754797,4.7767735,-1.9699911,0.0010560991,0.16564319,-0.026442554,6.548898e-05,-9.646487,10.077432,0.2589647,0.23955485,0.119125724,0.06711162,inf,inf,inf,inf,1,1,1,1,3,2,3,2,3,1,1,1,0,0,0
216262262,216261729,42042859,60.1877325,24.832678599999998,-4.0299783,-9.717967,-12.843464,0.2201162,0.143384,-2.0861626e-07,0.0094029335,0.026985243,-0.5743477,-0.5501531,-0.025945434,0.04994766,0.011585729,1.0684459,0.36664695,-2.1244445,-1.9690611,0.0010528876,0.16824204,-0.026442554,6.5549146e-05,-9.646487,10.127743,0.25954983,0.23970681,0.11872373,0.06715477,inf,inf,inf,inf,1,1,1,1,3,2,3,2,3,1,1,1,0,0,0
216362230,216361729,42042859,60.1877325,24.832678599999998,-4.021535,-9.713709,-12.894062,0.2201162,0.143384,-2.0861626e-07,-0.011592365,-0.044943046,-0.5358002,-0.5091248,-0.025945434,0.04994766,0.011585729,-2.252615,-3.3876638,3.6264703,-1.9687619,0.0010504196,0.16656165,-0.026442554,6.554792e-05,-9.646487,10.178341,0.25979018,0.24031806,0.11791529,0.06718678,inf,inf,inf,inf,1,1,1,1,3,2,3,2,3,1,1,1,0,0,0
216462459,216461729,42042859,60.1877325,24.832678599999998,-4.0167007,-9.717528,-12.939739,0.2201162,0.143384,-2.0861626e-07,-0.033486303,-0.10995586,-0.5166689,-0.48624757,-0.025945434,0.04994766,0.011585729,-0.79631406,-2.4425187,0.4852822,-1.9675478,0.0010492669,0.1668042,-0.026442554,6.553771e-05,-9.646487,10.224018,0.2600814,0.24038243,0.11736991,0.067174226,inf,inf,inf,inf,1,1,1,1,3,2,3,2,3,1,1,1,0,0,0
216562232,216561729,42042859,60.1877325,24.832678599999998,-4.015406,-9.729052,-12.98081,0.2201162,0.143384,-2.0861626e-07,-0.07447575,-0.18418252,-0.47125873,-0.43662226,-0.025945434,0.04994766,0.011585729,0.3118497,-1.1175728,0.34655315,-1.9665413,0.0010489088,0.16680934,-0.026442554,6.552563e-05,-9.646487,10.265089,0.2603111,0.24099353,0.116753206,0.06719916,inf,inf,inf,inf,1,1,1,1,3,2,3,2,3,1,1,1,0,0,0
216662236,216661729,42042859,60.1877325,24.832678599999998,-4.019184,-9.747133,-13.019804,0.2201162,0.143384,-2.0861626e-07,-0.10606664,-0.24139102,-0.47540247,-0.43658134,-0.025945434,0.04994766,0.011585729,2.686747,-3.3463259,-1.0820264,-1.9649935,0.0010490447,0.16865937,-0.026442554,6.546314e-05,-9.646487,10.304083,0.26030967,0.24096298,0.115978554,0.0671179,inf,inf,inf,inf,1,1,1,1,3,2,3,2,3,1,1,1,0,0,0
216762241,216761729,42042859,60.1877325,24.832678599999998,-4.0260525,-9.769933,-13.057028,0.2201162,0.143384,-2.0861626e-07,-0.13775307,-0.27380583,-0.45017767,-0.40754578,-0.025945434,0.04994766,0.011585729,-0.054458827,0.31674364,-2.6640656,-1.9625182,0.0010492253,0.17252283,-0.026442554,6.5378044e-05,-9.646487,10.341307,0.2602762,0.2414852,0.115444675,0.06711339,inf,inf,inf,inf,1,1,1,1,3,2,3,2,3,1,1,1,0,0,0
216862233,216861729,42042859,60.1877325,24.832678599999998,-4.0339994,-9.795692,-13.092839,0.2201162,0.143384,-2.0861626e-07,-0.16140868,-0.2496741,-0.4661576,-0.4194684,-0.025945434,0.04994766,0.011585729,-4.218261,6.6087575,-0.12906733,-1.9606423,0.0010492732,0.17488515,-0.026442554,6.5285174e-05,-9.646487,10.377118,0.26012945,0.24139449,0.114891686,0.06701815,inf,inf,inf,inf,1,1,1,1,3,2,3,2,3,1,1,1,0,0,0
216962459,216961729,42042859,60.1877325,24.832678599999998,-4.0439167,-9.820525,-13.132008,0.2201162,0.143384,-2.0861626e-07,-0.13550416,-0.24690248,-0.50335395,-0.4531806,-0.025945434,0.04994766,0.011585729,-0.08007993,-2.6151233,-0.3913248,-1.9604604,0.0010490344,0.17547664,-0.026442554,6.520546e-05,-9.646487,10.416286,0.2600939,0.24190447,0.114479624,0.06703308,inf,inf,inf,inf,1,1,1,1,3,2,3,2,3,1,1,1,0,0,0
217062265,217061729,42042859,60.1877325,24.832678599999998,-4.0539265,-9.841205,-13.17198,0.2201162,0.143384,-2.0861626e-07,-0.12930739,-0.20760258,-0.5072339,-0.45297778,-0.025945434,0.04994766,0.011585729,-0.36869058,9.013607,-0.41630882,-1.9594462,0.0010486903,0.17655899,-0.026442554,6.512061e-05,-9.646487,10.456259,0.2599614,0.2418098,0.11419414,0.06693559,inf,inf,inf,inf,1,1,1,1,3,2,3,2,3,1,1,1,0,0,0
217162233,217161729,42042859,60.1877325,24.832678599999998,-4.059547,-9.858674,-13.211666,0.2201162,0.143384,-2.0861626e-07,-0.0665185,-0.16653526,-0.5058176,-0.44675997,-0.025945434,0.04994766,0.011585729,2.1131425,-4.0850782,1.621796,-1.9573123,0.0010482185,0.17861538,-0.026442554,6.5027445e-05,-9.646487,10.495945,0.2598215,0.24227439,0.113850534,0.06690842,inf,inf,inf,inf,1,1,1,1,3,2,3,2,3,1,1,1,0,0,0
217262240,217261729,42042859,60.1877325,24.832678599999998,-4.062247,-9.872029,-13.250839,0.2201162,0.143384,-2.0861626e-07,-0.027834132,-0.12543657,-0.5221546,-0.4581148,-0.025945434,0.04994766,0.011585729,1.3558595,-6.452799,-4.461938,-1.953384,0.0010479753,0.18232635,-0.026442554,6.493932e-05,-9.646487,10.535118,0.25971532,0.2421684,0.113394015,0.06681566,inf,inf,inf,inf,1,1,1,1,3,2,3,2,3,1,1,1,0,0,0
217362236,217361729,42042859,60.1877325,24.832678599999998,-4.0625334,-9.880665,-13.290892,0.2201162,0.143384,-2.0861626e-07,-0.004403355,-0.05871192,-0.5271352,-0.4586493,-0.025945434,0.04994766,0.011585729,1.2091959,2.067113,-1.2132151,-1.9490788,0.0010480352,0.18648313,-0.026442554,6.487495e-05,-9.646487,10.5751705,0.25961107,0.2420391,0.112918444,0.0667539,inf,inf,inf,inf,1,1,1,1,3,2,3,2,3,1,1,1,0,0,0
217462366,217461729,42042859,60.1877325,24.832678599999998,-4.061912,-9.884587,-13.33102,0.2201162,0.143384,-2.0861626e-07,0.026041362,0.013643787,-0.5326386,-0.459846,-0.025945434,0.04994766,0.011585729,0.95168054,3.4074028,-1.866472,-1.9469723,0.0010482221,0.18834162,-0.026442554,6.480711e-05,-9.646487,10.615299,0.25951418,0.24247465,0.1126047,0.066739194,inf,inf,inf,inf,1,1,1,1,3,2,3,2,3,1,1,1,0,0,0
217562233,217561729,42042859,60.1877325,24.832678599999998,-4.0645614,-9.881414,-13.372072,0.2201162,0.143384,-2.0861626e-07,0.01934408,0.059114773,-0.5527128,-0.47565475,-0.025945434,0.04994766,0.011585729,-2.340017,3.045769,-1.5525186,-1.9449159,0.001048668,0.19035806,-0.026442554,6.476082e-05,-9.646487,10.656351,0.25942436,0.242322,0.112289354,0.06667366,inf,inf,inf,inf,1,1,1,1,3,2,3,2,3,1,1,1,0,0,0
217662205,217661729,42042859,60.1877325,24.832678599999998,-4.070286,-9.875484,-13.413469,0.2201162,0.143384,-2.0861626e-07,0.0067327544,0.031432234,-0.540308,-0.45868468,-0.025945434,0.04994766,0.011585729,-1.5865842,-4.576025,0.69086385,-1.9416522,0.0010491861,0.19365057,-0.026442554,6.4723805e-05,-9.646487,10.697748,0.25933823,0.24273004,0.11197992,0.066664666,inf,inf,inf,inf,1,1,1,1,3,2,3,2,3,1,1,1,0,0,0
217762247,217761729,42042859,60.1877325,24.832678599999998,-4.0783606,-9.871958,-13.454139,0.2201162,0.143384,-2.0861626e-07,-0.0053661205,0.0039471816,-0.5438452,-0.45862538,-0.025945434,0.04994766,0.011585729,-1.5530263,0.09482912,-2.0880263,-1.9384867,0.0010497255,0.19683427,-0.026442554,6.467505e-05,-9.646487,10.738418,0.25925082,0.24254456,0.11182024,0.06658686,inf,inf,inf,inf,1,1,1,1,3,2,3,2,3,1,1,1,0,0,0
217862207,217861729,42042859,60.1877325,24.832678599999998,-4.0875096,-9.877947,-13.495731,0.2201162,0.143384,-2.0861626e-07,-0.06498579,-0.12452209,-0.559453,-0.47204185,-0.025945434,0.04994766,0.011585729,-0.17121825,-1.4727542,-1.5897659,-1.935146,0.0010502862,0.20023277,-0.026442554,6.463949e-05,-9.646487,10.78001,0.25916827,0.24292503,0.11160888,0.066583425,inf,inf,inf,inf,1,1,1,1,3,2,3,2,3,1,1,1,0,0,0
217962380,217961729,42042859,60.1877325,24.832678599999998,-4.1024585,-9.900113,-13.540357,0.2201162,0.143384,-2.0861626e-07,-0.14206403,-0.36001283,-0.5643068,-0.47669473,-0.025945434,0.04994766,0.011585729,0.43751135,-9.343907,0.31132904,-1.9312611,0.0010507137,0.20723352,-0.026442554,6.4587046e-05,-9.646487,10.8246355,0.2590875,0.24271569,0.111453965,0.0664915,inf,inf,inf,inf,1,1,1,1,3,2,3,2,3,1,1,1,0,0,0
218062203,218061729,42042859,60.1877325,24.832678599999998,-4.1282525,-9.948949,-13.589261,0.2201162,0.143384,-2.0861626e-07,-0.23752433,-0.6147479,-0.5473171,-0.4616616,-0.025945434,0.04994766,0.011585729,-1.8053135,-5.778446,5.643932,-1.9293759,0.0010506826,0.21110772,-0.026442554,6.453574e-05,-9.646487,10.87354,0.25900826,0.24307892,0.111684285,0.06649285,inf,inf,inf,inf,1,1,1,1,3,2,3,2,3,1,1,1,0,0,0
218162211,218161729,42042859,60.1877325,24.832678599999998,-4.165269,-10.028209,-13.636659,0.2201162,0.143384,-2.0861626e-07,-0.3297903,-0.87583697,-0.5065913,-0.42391166,-0.025945434,0.04994766,0.011585729,-4.2740574,-4.814306,4.8202915,-1.9309705,0.0010487505,0.20618789,-0.026442554,6.443939e-05,-9.646487,10.920938,0.2589078,0.24284926,0.112350315,0.0664281,inf,inf,inf,inf,1,1,1,1,3,2,3,2,3,1,1,1,0,0,0
218262215,218261729,42042859,60.1877325,24.832678599999998,-4.2109222,-10.13253,-13.679906,0.2201162,0.143384,-2.0861626e-07,-0.44244578,-1.1433848,-0.46150485,-0.38235027,-0.025945434,0.04994766,0.011585729,-3.5452147,-4.5186815,-1.0829465,-1.9358587,0.0010429629,0.19766612,-0.026442554,6.430282e-05,-9.646487,10.964185,0.25883707,0.2432015,0.113672495,0.06643822,inf,inf,inf,inf,1,1,1,1,3,2,3,2,3,1,1,1,0,0,0
218362231,218361729,42042859,60.1877325,24.832678599999998,-4.263223,-10.257629,-13.720235,0.2201162,0.143384,-2.0861626e-07,-0.5022805,-1.3294863,-0.459992,-0.38425902,-0.025945434,0.04994766,0.011585729,-0.03699871,-2.1648214,0.7840281,-1.9400395,0.0010329251,0.1919127,-0.026442554,6.417372e-05,-9.646487,11.004514,0.25876737,0.24296747,0.115276925,0.066411875,inf,inf,inf,inf,1,1,1,1,3,2,3,2,3,1,1,1,0,0,0
218462422,218461729,42042859,60.1877325,24.832678599999998,-4.319207,-10.398289,-13.761227,0.2201162,0.143384,-2.0861626e-07,-0.5667216,-1.4774805,-0.4790827,-0.40631163,-0.025945434,0.04994766,0.011585729,-0.5284427,0.4965813,-3.6822479,-1.9433812,0.0010166749,0.18949105,-0.026442554,6.403477e-05,-9.646487,11.045506,0.25869727,0.24330965,0.11694734,0.06645509,inf,inf,inf,inf,1,1,1,1,3,2,3,2,3,1,1,1,0,0,0
218562273,218561729,42042859,60.1877325,24.832678599999998,-4.380567,-10.550362,-13.803548,0.2201162,0.143384,-2.0861626e-07,-0.5987428,-1.5479119,-0.48048678,-0.41061828,-0.025945434,0.04994766,0.011585729,-0.64047295,0.352953,3.4697425,-1.9464576,0.0009977823,0.18554577,-0.026442554,6.3920044e-05,-9.646487,11.087827,0.25861862,0.24306756,0.118577875,0.066431955,inf,inf,inf,inf,1,1,1,1,3,2,3,2,3,1,1,1,0,0,0
218662262,218661729,42042859,60.1877325,24.832678599999998,-4.44197,-10.707751,-13.849054,0.2201162,0.143384,-2.0861626e-07,-0.60842514,-1.5771006,-0.52440345,-0.45678282,-0.025945434,0.04994766,0.011585729,0.12141487,-0.7692807,0.045740414,-1.9504902,0.00097591383,0.18123461,-0.026442554,6.381216e-05,-9.646487,11.133333,0.25854874,0.242818,0.11910564,0.06641485,inf,inf,inf,inf,1,1,1,1,3,2,3,2,3,1,1,1,0,0,0
218762233,218761729,42042859,60.1877325,24.832678599999998,-4.499631,-10.858709,-13.898248,0.2201162,0.143384,-2.0861626e-07,-0.5951091,-1.5474204,-0.58815366,-0.52154195,-0.025945434,0.04994766,0.011585729,0.56907815,-3.2703388,-4.410453,-1.9525293,0.0009556321,0.17899755,-0.026442554,6.374118e-05,-9.646487,11.182527,0.25862485,0.24320485,0.11939783,0.06648637,inf,inf,inf,inf,1,1,1,1,3,2,3,2,3,1,1,1,0,0,0
218862263,218861729,42042859,60.1877325,24.832678599999998,-4.5534377,-11.0018015,-13.952105,0.2201162,0.143384,-2.0861626e-07,-0.56069213,-1.4500203,-0.6231291,-0.55671054,-0.025945434,0.04994766,0.011585729,1.0939157,0.5378147,1.5136567,-1.955717,0.0009355966,0.17531385,-0.026442554,6.364641e-05,-9.646487,11.236383,0.2585618,0.24294767,0.11839801,0.0664482,inf,inf,inf,inf,1,1,1,1,3,2,3,2,3,1,1,1,0,0,0
218962450,218961729,42042859,60.1877325,24.832678599999998,-4.603178,-11.141357,-14.008473,0.2201162,0.143384,-2.0861626e-07,-0.5063321,-1.3440601,-0.650336,-0.58400035,-0.025945434,0.04994766,0.011585729,1.2710402,5.224375,-2.496765,-1.961299,0.0009194612,0.16892384,-0.026442554,6.354098e-05,-9.646487,11.292752,0.25850686,0.2432719,0.11714587,0.066441335,inf,inf,inf,inf,1,1,1,1,3,2,3,2,3,1,1,1,0,0,0
219062255,219061729,42042859,60.1877325,24.832678599999998,-4.6522865,-11.277697,-14.063904,0.2201162,0.143384,-2.0861626e-07,-0.50041854,-1.2788664,-0.58459955,-0.5188251,-0.025945434,0.04994766,0.011585729,0.3257351,1.2659061,1.1465235,-1.9683594,0.000907626,0.1609303,-0.026442554,6.345665e-05,-9.646487,11.348183,0.2584556,0.24300759,0.11591547,0.06637634,inf,inf,inf,inf,1,1,1,1,3,2,3,2,3,1,1,1,0,0,0
219162237,219161729,42042859,60.1877325,24.832678599999998,-4.704472,-11.407892,-14.110396,0.2201162,0.143384,-2.0861626e-07,-0.48103115,-1.2258989,-0.46737146,-0.40275437,-0.025945434,0.04994766,0.011585729,0.59108615,1.5939634,1.8629626,-1.9732071,0.00089889334,0.15549292,-0.026442554,6.3373824e-05,-9.646487,11.394675,0.25839365,0.2433168,0.11439887,0.066380404,inf,inf,inf,inf,1,1,1,1,3,2,3,2,3,1,1,1,0,0,0
219262235,219261729,42042859,60.1877325,24.832678599999998,-4.7573934,-11.534627,-14.14831,0.2201162,0.143384,-2.0861626e-07,-0.49361908,-1.2013713,-0.4054306,-0.34250104,-0.025945434,0.04994766,0.011585729,1.2195884,-0.4695711,0.79240406,-1.9734092,0.00089299027,0.15549812,-0.026442554,6.330638e-05,-9.646487,11.432589,0.25836304,0.24304925,0.11301811,0.06635233,inf,inf,inf,inf,1,1,1,1,3,2,3,2,3,1,1,1,0,0,0
219362217,219361730,42042859,60.1877325,24.832678599999998,-4.8095975,-11.657153,-14.1847725,0.2201162,0.143384,-2.0861626e-07,-0.4955616,-1.1946716,-0.3993803,-0.3388791,-0.025945434,0.04994766,0.011585729,-2.0664315,-3.092083,-2.3698375,-1.9729728,0.0008890882,0.1564202,-0.026442554,6.3284686e-05,-9.646487,11.469051,0.25831237,0.24335535,0.11193605,0.066372424,inf,inf,inf,inf,1,1,1,1,3,2,3,2,3,1,1,1,0,0,0
219462371,219461729,42042859,60.1877325,24.832678599999998,-4.862203,-11.778265,-14.221094,0.2201162,0.143384,-2.0861626e-07,-0.494437,-1.1485671,-0.37796876,-0.3204332,-0.025945434,0.04994766,0.011585729,-1.166294,-0.67082787,1.3961388,-1.9712057,0.0008863976,0.1588395,-0.026442554,6.330773e-05,-9.646487,11.505373,0.2584239,0.24313916,0.11171074,0.066370666,inf,inf,inf,inf,1,1,1,1,3,2,3,2,3,1,1,1,0,0,0
219562211,219561729,42042859,60.1877325,24.832678599999998,-4.9172688,-11.898721,-14.254899,0.2201162,0.143384,-2.0861626e-07,-0.4719869,-1.1540221,-0.35639787,-0.3016069,-0.025945434,0.04994766,0.011585729,-3.0414755,-0.8555311,0.3112657,-1.9665211,0.0008841101,0.1637214,-0.026442554,6.331082e-05,-9.646487,11.539178,0.25840193,0.24344853,0.11130504,0.06640522,inf,inf,inf,inf,1,1,1,1,3,2,3,2,3,1,1,1,0,0,0
219662197,219661729,42042859,60.1877325,24.832678599999998,-4.9684424,-12.019487,-14.284822,0.2201162,0.143384,-2.0861626e-07,-0.4496588,-1.1587789,-0.32897618,-0.27689406,-0.025945434,0.04994766,0.011585729,2.8340642,-5.365279,-4.197022,-1.9625623,0.00088246336,0.16743653,-0.026442554,6.331656e-05,-9.646487,11.569101,0.25838643,0.24317566,0.110979214,0.06637556,inf,inf,inf,inf,1,1,1,1,3,2,3,2,3,1,1,1,0,0,0
219762204,219761729,42042859,60.1877325,24.832678599999998,-5.017927,-12.142291,-14.31767,0.2201162,0.143384,-2.0861626e-07,-0.43762383,-1.1552453,-0.36069474,-0.31222662,-0.025945434,0.04994766,0.011585729,1.3190421,-0.23138283,1.2584058,-1.9597167,0.0008813892,0.17027746,-0.026442554,6.3317464e-05,-9.646487,11.601949,0.25837168,0.24348302,0.11058191,0.06642286,inf,inf,inf,inf,1,1,1,1,3,2,3,2,3,1,1,1,0,0,0
219862262,219861729,42042859,60.1877325,24.832678599999998,-5.068898,-12.264824,-14.35583,0.2201162,0.143384,-2.0861626e-07,-0.4308971,-1.1586719,-0.39346474,-0.34968597,-0.025945434,0.04994766,0.011585729,0.69949365,5.1970696,-1.2342501,-1.9600241,0.00088087353,0.1695017,-0.026442554,6.336211e-05,-9.646487,11.640109,0.25845733,0.2432455,0.11064757,0.06641928,inf,inf,inf,inf,1,1,1,1,3,2,3,2,3,1,1,1,0,0,0
219962422,219961729,42042859,60.1877325,24.832678599999998,-5.1224675,-12.388439,-14.393082,0.2201162,0.143384,-2.0861626e-07,-0.44002905,-1.1881645,-0.331882,-0.2932472,-0.025945434,0.04994766,0.011585729,-0.35180086,-2.2323084,-0.4585037,-1.9607588,0.00088062807,0.1676112,-0.026442554,6.3346844e-05,-9.646487,11.677361,0.25844815,0.24296746,0.110710286,0.06638982,inf,inf,inf,inf,1,1,1,1,3,2,3,2,3,1,1,1,0,0,0
220062212,220061729,42042859,60.1877325,24.832678599999998,-5.17775,-12.511543,-14.423785,0.2201162,0.143384,-2.0861626e-07,-0.4446576,-1.1598309,-0.27068,-0.23644309,-0.025945434,0.04994766,0.011585729,1.6913077,1.7979486,2.7432082,-1.9573458,0.0008805029,0.17035376,-0.026442554,6.3360334e-05,-9.646487,11.708064,0.25852,0.24330646,0.11080742,0.06643194,inf,inf,inf,inf,1,1,1,1,3,2,3,2,3,1,1,1,0,0,0
220162227,220161729,42042859,60.1877325,24.832678599999998,-5.2340174,-12.635857,-14.449024,0.2201162,0.143384,-2.0861626e-07,-0.46037123,-1.1853151,-0.2403544,-0.20957834,-0.025945434,0.04994766,0.011585729,0.7642113,-2.9770331,0.07792096,-1.9521255,0.00088050123,0.17628565,-0.026442554,6.339564e-05,-9.646487,11.733303,0.25863808,0.24307717,0.11064277,0.06646386,inf,inf,inf,inf,1,1,1,1,3,2,3,2,3,1,1,1,0,0,0
220262208,220261729,42042859,60.1877325,24.832678599999998,-5.2903185,-12.760654,-14.471405,0.2201162,0.143384,-2.0861626e-07,-0.44738087,-1.168555,-0.22151037,-0.19317387,-0.025945434,0.04994766,0.011585729,0.1592265,-1.7491348,5.197819,-1.9479091,0.00088053336,0.18162678,-0.026442554,6.339068e-05,-9.646487,11.755684,0.25863475,0.2433841,0.11033379,0.06649854,inf,inf,inf,inf,1,1,1,1,3,2,3,2,3,1,1,1,0,0,0
220362236,220361729,42042859,60.1877325,24.832678599999998,-5.3437185,-12.883707,-14.495478,0.2201162,0.143384,-2.0861626e-07,-0.452893,-1.1819304,-0.2699818,-0.24315189,-0.025945434,0.04994766,0.011585729,-2.2172031,-2.6447182,-1.2435222,-1.9479039,0.0008807244,0.18230042,-0.026442554,6.34036e-05,-9.646487,11.779757,0.25860918,0.24309857,0.11016791,0.06646627,inf,inf,inf,inf,1,1,1,1,3,2,3,2,3,1,1,1,0,0,0
220462229,220461729,42042859,60.1877325,24.832678599999998,-5.393228,-12.999905,-14.522448,0.2201162,0.143384,-2.0861626e-07,-0.41329867,-1.0980864,-0.31531268,-0.28852022,-0.025945434,0.04994766,0.011585729,-0.4471258,3.8736846,1.574765,-1.9521512,0.0008809407,0.17782925,-0.026442554,6.342534e-05,-9.646487,11.806726,0.2586102,0.24340339,0.110130824,0.06649818,inf,inf,inf,inf,1,1,1,1,3,2,3,2,3,1,1,1,0,0,0
220662243,220661729,42042859,60.1877325,24.832678599999998,-5.483751,-13.218795,-14.580451,0.2201162,0.143384,-2.0861626e-07,-0.36779088,-1.0129982,-0.35976776,-0.33017462,-0.025945434,0.04994766,0.011585729,3.7778041,-1.3820488,-1.3855153,-1.9612488,0.0008823035,0.16847949,-0.026442554,6.3413914e-05,-9.646487,11.86473,0.25864747,0.24344127,0.110344484,0.06649089,inf,inf,inf,inf,1,1,1,1,3,2,3,2,3,1,1,1,0,0,0
221062245,221061729,42042859,60.1877325,24.832678599999998,-5.631037,-13.583415,-14.70201,0.2201162,0.143384,-2.0861626e-07,-0.23797323,-0.6952587,-0.3788336,-0.34196445,-0.025945434,0.04994766,0.011585729,0.52559495,-3.472868,-2.7469554,-1.9601369,0.0008860296,0.16967387,-0.026442554,6.3261e-05,-9.646487,11.986289,0.2587355,0.2435089,0.11039525,0.06653321,inf,inf,inf,inf,1,1,1,1,3,2,3,2,3,1,1,1,0,0,0
221162276,221161729,42042859,60.1877325,24.832678599999998,-5.65868,-13.651023,-14.731777,0.2201162,0.143384,-2.0861626e-07,-0.21281211,-0.6290028,-0.3451574,-0.3057344,-0.025945434,0.04994766,0.011585729,0.69417936,-1.4012688,-2.4182918,-1.9523319,0.00088647596,0.17737244,-0.026442554,6.3201034e-05,-9.646487,12.016056,0.25871727,0.24321897,0.11051834,0.06647475,inf,inf,inf,inf,1,1,1,1,3,2,3,2,3,1,1,1,0,0,0
221262281,221261730,42042859,60.1877325,24.832678599999998,-5.6824694,-13.708812,-14.7573,0.2201162,0.143384,-2.0861626e-07,-0.17442678,-0.54643434,-0.2944279,-0.2526964,-0.025945434,0.04994766,0.011585729,-0.34849536,-2.2379785,-0.60404617,-1.9415349,0.00088648155,0.188127,-0.026442554,6.311991e-05,-9.646487,12.041579,0.2586994,0.24292728,0.11077597,0.06645344,inf,inf,inf,inf,1,1,1,1,3,2,3,2,3,1,1,1,0,0,0
221362216,221361729,42042859,60.1877325,24.832678599999998,-5.7034554,-13.759934,-14.778416,0.2201162,0.143384,-2.0861626e-07,-0.11854876,-0.4728666,-0.2830405,-0.23857088,-0.025945434,0.04994766,0.011585729,2.65354,-0.7470484,-0.8265145,-1.9299853,0.00088593527,0.19951566,-0.026442554,6.306256e-05,-9.646487,12.062695,0.25868306,0.24321677,0.11080442,0.066458456,inf,inf,inf,inf,1,1,1,1,3,2,3,2,3,1,1,1,0,0,0
221462237,221461731,42042859,60.1877325,24.832678599999998,-5.7230453,-13.805445,-14.7982025,0.2201162,0.143384,-2.0861626e-07,-0.107144885,-0.39034855,-0.2902174,-0.24254476,-0.025945434,0.04994766,0.011585729,2.6436057,1.7416829,-2.3907137,-1.9246192,0.0008850475,0.20488746,-0.026442554,6.301597e-05,-9.646487,12.082481,0.25866026,0.24291599,0.110747725,0.06640336,inf,inf,inf,inf,1,1,1,1,3,2,3,2,3,1,1,1,0,0,0
221562214,221561729,42042859,60.1877325,24.832678599999998,-5.7378087,-13.841326,-14.818392,0.2201162,0.143384,-2.0861626e-07,-0.07860511,-0.31561416,-0.2767532,-0.22585998,-0.025945434,0.04994766,0.011585729,-2.870246,-3.8054018,1.2701666,-1.9221146,0.00088378176,0.2073734,-0.026442554,6.2958796e-05,-9.646487,12.102671,0.25863054,0.24319433,0.1108863,0.06642004,inf,inf,inf,inf,1,1,1,1,3,2,3,2,3,1,1,1,0,0,0
221662208,221661729,42042859,60.1877325,24.832678599999998,-5.7475305,-13.864706,-14.839623,0.2201162,0.143384,-2.0861626e-07,-0.037973367,-0.24596936,-0.30039507,-0.24665254,-0.025945434,0.04994766,0.011585729,0.48453236,-3.8267293,-0.6127086,-1.9216431,0.0008820478,0.20771392,-0.026442554,6.291755e-05,-9.646487,12.123902,0.25860158,0.24288295,0.11111536,0.06637813,inf,inf,inf,inf,1,1,1,1,3,2,3,2,3,1,1,1,0,0,0
221762217,221761729,42042859,60.1877325,24.832678599999998,-5.754567,-13.879743,-14.861871,0.2201162,0.143384,-2.0861626e-07,-0.03580855,-0.17730448,-0.32234168,-0.26563466,-0.025945434,0.04994766,0.011585729,-2.5886192,1.0249802,-0.9661043,-1.9197426,0.00087980024,0.20950481,-0.026442554,6.285751e-05,-9.646487,12.14615,0.25856644,0.24314658,0.11137296,0.06640469,inf,inf,inf,inf,1,1,1,1,3,2,3,2,3,1,1,1,0,0,0
221862211,221861729,42042859,60.1877325,24.832678599999998,-5.760244,-13.892249,-14.883951,0.2201162,0.143384,-2.0861626e-07,-0.025385456,-0.12056512,-0.3268212,-0.26674688,-0.025945434,0.04994766,0.011585729,2.1913488,7.3646626,-1.8103572,-1.9148664,0.0008769844,0.21433036,-0.026442554,6.2814324e-05,-9.646487,12.16823,0.25852758,0.2428255,0.11147165,0.06635717,inf,inf,inf,inf,1,1,1,1,3,2,3,2,3,1,1,1,0,0,0
221962255,221961731,42042859,60.1877325,24.832678599999998,-5.764918,-13.902365,-14.906686,0.2201162,0.143384,-2.0861626e-07,0.013445183,-0.104219675,-0.32012764,-0.25718668,-0.025945434,0.04994766,0.011585729,2.1261652,1.1353949,4.5803638,-1.9074149,0.00087438826,0.22190946,-0.026442554,6.2773324e-05,-9.646487,12.190965,0.2584846,0.24307962,0.11157273,0.066369385,inf,inf,inf,inf,1,1,1,1,3,2,3,2,3,1,1,1,0,0,0
222062203,222061729,42042859,60.1877325,24.832678599999998,-5.765873,-13.909569,-14.930954,0.2201162,0.143384,-2.0861626e-07,0.017774392,-0.07755969,-0.35438386,-0.2887908,-0.025945434,0.04994766,0.011585729,-0.26887298,4.236748,-2.5750804,-1.9022346,0.0008719341,0.22743067,-0.026442554,6.2723135e-05,-9.646487,12.215233,0.25844428,0.24275246,0.11144191,0.06630047,inf,inf,inf,inf,1,1,1,1,3,2,3,2,3,1,1,1,0,0,0
222162212,222161729,42042859,60.1877325,24.832678599999998,-5.7653975,-13.916055,-14.956779,0.2201162,0.143384,-2.0861626e-07,0.03585747,-0.08456761,-0.34796798,-0.2799993,-0.025945434,0.04994766,0.011585729,-2.6509566,-0.47837225,1.3339555,-1.9007316,0.0008694955,0.22863716,-0.026442554,6.2688094e-05,-9.646487,12.241057,0.25839895,0.24300021,0.11145124,0.066312656,inf,inf,inf,inf,1,1,1,1,3,2,3,2,3,1,1,1,0,0,0
222262211,222261729,42042859,60.1877325,24.832678599999998,-5.764572,-13.919962,-14.98176,0.2201162,0.143384,-2.0861626e-07,0.05485007,-0.07647496,-0.34928796,-0.2785726,-0.025945434,0.04994766,0.011585729,2.4158707,4.159751,0.31253752,-1.9014505,0.0008671631,0.2265658,-0.026442554,6.263166e-05,-9.646487,12.266039,0.2583485,0.24266654,0.11131125,0.06624982,inf,inf,inf,inf,1,1,1,1,3,2,3,2,3,1,1,1,0,0,0
222362240,222361729,42042859,60.1877325,24.832678599999998,-5.763256,-13.925722,-15.004103,0.2201162,0.143384,-2.0861626e-07,0.02752424,-0.10578359,-0.3272762,-0.25301442,-0.025945434,0.04994766,0.011585729,0.04429328,-1.0138179,1.6399963,-1.904771,0.0008653651,0.22235422,-0.026442554,6.2599924e-05,-9.646487,12.288382,0.25830254,0.24290779,0.11113243,0.066256635,inf,inf,inf,inf,1,1,1,1,3,2,3,2,3,1,1,1,0,0,0
222462298,222461729,42042859,60.1877325,24.832678599999998,-5.7661676,-13.931569,-15.024912,0.2201162,0.143384,-2.0861626e-07,-0.012938682,-0.12365901,-0.31868836,-0.2412138,-0.025945434,0.04994766,0.011585729,-0.84102184,-0.043276466,-0.20679328,-1.911822,0.000863876,0.21518381,-0.026442554,6.257009e-05,-9.646487,12.309191,0.2582582,0.2425688,0.11094311,0.06621939,inf,inf,inf,inf,1,1,1,1,3,2,3,2,3,1,1,1,0,0,0
222562277,222561729,42042859,60.1877325,24.832678599999998,-5.7697473,-13.939746,-15.046796,0.2201162,0.143384,-2.0861626e-07,-0.042655256,-0.13134368,-0.31266198,-0.23377997,-0.025945434,0.04994766,0.011585729,0.07332189,0.75300074,2.707754,-1.9219534,0.00086302916,0.20536907,-0.026442554,6.253175e-05,-9.646487,12.331075,0.25820935,0.2422281,0.11060312,0.066151924,inf,inf,inf,inf,1,1,1,1,3,2,3,2,3,1,1,1,0,0,0
222662242,222661729,42042859,60.1877325,24.832678599999998,-5.773507,-13.949556,-15.070203,0.2201162,0.143384,-2.0861626e-07,-0.06160853,-0.14906129,-0.31827068,-0.23900954,-0.025945434,0.04994766,0.011585729,1.2900835,-0.5145155,2.7323728,-1.9330148,0.0008627432,0.19465706,-0.026442554,6.2517545e-05,-9.646487,12.354482,0.2581634,0.24246322,0.11033312,0.066153966,inf,inf,inf,inf,1,1,1,1,3,2,3,2,3,1,1,1,0,0,0
222762275,222761729,42042859,60.1877325,24.832678599999998,-5.7794194,-13.960337,-15.093548,0.2201162,0.143384,-2.0861626e-07,-0.08573136,-0.15443088,-0.3264959,-0.24641156,-0.025945434,0.04994766,0.011585729,-1.0894475,-0.011874994,0.8092819,-1.9422172,0.0008628662,0.18597902,-0.026442554,6.248573e-05,-9.646487,12.377827,0.2581117,0.24211746,0.1101151,0.066080436,inf,inf,inf,inf,1,1,1,1,3,2,3,2,3,1,1,1,0,0,0
222862238,222861729,42042859,60.1877325,24.832678599999998,-5.7872815,-13.971013,-15.117377,0.2201162,0.143384,-2.0861626e-07,-0.11330537,-0.15015309,-0.34507748,-0.26408157,-0.025945434,0.04994766,0.011585729,-1.3705368,2.408837,-1.5648904,-1.9495344,0.00086329225,0.17872998,-0.026442554,6.247158e-05,-9.646487,12.401656,0.25806266,0.24234666,0.1100159,0.06607881,inf,inf,inf,inf,1,1,1,1,3,2,3,2,3,1,1,1,0,0,0
222962242,222961729,42042859,60.1877325,24.832678599999998,-5.795964,-13.980217,-15.142269,0.2201162,0.143384,-2.0861626e-07,-0.13866279,-0.13409506,-0.3504606,-0.26909345,-0.025945434,0.04994766,0.011585729,0.35559136,2.4730558,0.1934385,-1.9539924,0.0008639355,0.17406869,-0.026442554,6.2455525e-05,-9.646487,12.426548,0.25800925,0.24199842,0.10989042,0.0660068,inf,inf,inf,inf,1,1,1,1,3,2,3,2,3,1,1,1,0,0,0
223062247,223061729,42042859,60.1877325,24.832678599999998,-5.8053856,-13.988841,-15.167444,0.2201162,0.143384,-2.0861626e-07,-0.17325996,-0.14446147,-0.33317143,-0.2518449,-0.025945434,0.04994766,0.011585729,-1.7882894,-1.7579917,0.47793669,-1.9571738,0.0008647149,0.17100033,-0.026442554,6.2422645e-05,-9.646487,12.451723,0.25795758,0.24222496,0.109851785,0.06600562,inf,inf,inf,inf,1,1,1,1,3,2,3,2,3,1,1,1,0,0,0
223162236,223161729,42042859,60.1877325,24.832678599999998,-5.8185267,-13.998405,-15.192302,0.2201162,0.143384,-2.0861626e-07,-0.20416154,-0.13698065,-0.34084558,-0.2595706,-0.025945434,0.04994766,0.011585729,-2.0002337,-1.6631746,-1.1793824,-1.9586666,0.00086558907,0.17000778,-0.026442554,6.240885e-05,-9.646487,12.476581,0.2579093,0.24187458,0.10984725,0.06594997,inf,inf,inf,inf,1,1,1,1,3,2,3,2,3,1,1,1,0,0,0
223262256,223261730,42042859,60.1877325,24.832678599999998,-5.837109,-14.006951,-15.21791,0.2201162,0.143384,-2.0861626e-07,-0.21804598,-0.1168242,-0.36480677,-0.2828033,-0.025945434,0.04994766,0.011585729,1.0218774,0.5241755,-0.49193883,-1.9587044,0.000866459,0.17024602,-0.026442554,6.2388295e-05,-9.646487,12.502189,0.25788343,0.24210551,0.10988019,0.06595481,inf,inf,inf,inf,1,1,1,1,3,2,3,2,3,1,1,1,0,0,0
223362210,223361729,42042859,60.1877325,24.832678599999998,-5.8589787,-14.013334,-15.245933,0.2201162,0.143384,-2.0861626e-07,-0.23184814,-0.1065368,-0.36149353,-0.2795823,-0.025945434,0.04994766,0.011585729,0.9207071,-0.7138924,1.6607171,-1.9545023,0.00086736813,0.17463942,-0.026442554,6.237639e-05,-9.646487,12.530211,0.25783813,0.24175532,0.109881416,0.06589744,inf,inf,inf,inf,1,1,1,1,3,2,3,2,3,1,1,1,0,0,0
223462242,223461729,42042859,60.1877325,24.832678599999998,-5.880799,-14.018362,-15.273151,0.2201162,0.143384,-2.0861626e-07,-0.23725142,-0.099723235,-0.3607265,-0.2788411,-0.025945434,0.04994766,0.011585729,-0.87379676,-2.967169,0.18383694,-1.94356,0.0008682609,0.18585573,-0.026442554,6.235924e-05,-9.646487,12.55743,0.25779414,0.2419767,0.109919846,0.06589858,inf,inf,inf,inf,1,1,1,1,3,2,3,2,3,1,1,1,0,0,0
223562207,223561729,42042859,60.1877325,24.832678599999998,-5.9034314,-14.023176,-15.2982855,0.2201162,0.143384,-2.0861626e-07,-0.23063187,-0.10005598,-0.33008137,-0.24775049,-0.025945434,0.04994766,0.011585729,-1.4127836,0.080551125,2.1273224,-1.9290271,0.0008691488,0.20063752,-0.026442554,6.232232e-05,-9.646487,12.582564,0.25774592,0.24162903,0.10989256,0.06584636,inf,inf,inf,inf,1,1,1,1,3,2,3,2,3,1,1,1,0,0,0
223662248,223661729,42042859,60.1877325,24.832678599999998,-5.9253163,-14.030674,-15.321139,0.2201162,0.143384,-2.0861626e-07,-0.2003549,-0.08962805,-0.3187955,-0.23567407,-0.025945434,0.04994766,0.011585729,-3.67274,-0.65341115,1.5098301,-1.9137677,0.0008701021,0.2160472,-0.026442554,6.230826e-05,-9.646487,12.605418,0.25770092,0.24127778,0.10985253,0.065792985,inf,inf,inf,inf,1,1,1,1,3,2,3,2,3,1,1,1,0,0,0
223762252,223761729,42042859,60.1877325,24.832678599999998,-5.941397,-14.039314,-15.342198,0.2201162,0.143384,-2.0861626e-07,-0.14458868,-0.09016767,-0.30999663,-0.22604485,-0.025945434,0.04994766,0.011585729,4.3837066,0.74750036,-2.093279,-1.9027851,0.0008711093,0.22699186,-0.026442554,6.228074e-05,-9.646487,12.626477,0.25765106,0.24149844,0.10973309,0.06579497,inf,inf,inf,inf,1,1,1,1,3,2,3,2,3,1,1,1,0,0,0
223862233,223861729,42042859,60.1877325,24.832678599999998,-5.9509406,-14.045914,-15.363134,0.2201162,0.143384,-2.0861626e-07,-0.10278417,-0.09116129,-0.3133144,-0.22874866,-0.025945434,0.04994766,0.011585729,0.075727135,4.0019197,-1.3972217,-1.9024234,0.0008722236,0.22737546,-0.026442554,6.2275474e-05,-9.646487,12.647413,0.25760454,0.24114574,0.10963013,0.06574802,inf,inf,inf,inf,1,1,1,1,3,2,3,2,3,1,1,1,0,0,0
223962213,223961729,42042859,60.1877325,24.832678599999998,-5.9570518,-14.050684,-15.383916,0.2201162,0.143384,-2.0861626e-07,-0.057498187,-0.0793133,-0.29879728,-0.21375953,-0.025945434,0.04994766,0.011585729,-1.1198453,-0.5059429,-0.060267966,-1.9096116,0.000873416,0.22027119,-0.026442554,6.227133e-05,-9.646487,12.668195,0.25755358,0.24136417,0.10956709,0.06574787,inf,inf,inf,inf,1,1,1,1,3,2,3,2,3,1,1,1,0,0,0
224062217,224061729,42042859,60.1877325,24.832678599999998,-5.961373,-14.052464,-15.4050255,0.2201162,0.143384,-2.0861626e-07,-0.0075700674,-0.05891867,-0.30791837,-0.22302967,-0.025945434,0.04994766,0.011585729,1.573064,2.817159,-0.54873174,-1.9186939,0.00087462843,0.21121259,-0.026442554,6.224935e-05,-9.646487,12.689304,0.25750476,0.24101014,0.10953578,0.06568941,inf,inf,inf,inf,1,1,1,1,3,2,3,2,3,1,1,1,0,0,0
224162205,224161729,42042859,60.1877325,24.832678599999998,-5.9633317,-14.053135,-15.429319,0.2201162,0.143384,-2.0861626e-07,0.006181092,-0.03080321,-0.3402822,-0.256806,-0.025945434,0.04994766,0.011585729,-0.15900478,3.4499037,-0.5606951,-1.9294763,0.0008758591,0.20046048,-0.026442554,6.224518e-05,-9.646487,12.713598,0.25745222,0.24122411,0.109507725,0.06569787,inf,inf,inf,inf,1,1,1,1,3,2,3,2,3,1,1,1,0,0,0
224262209,224261729,42042859,60.1877325,24.832678599999998,-5.9615483,-14.054131,-15.457328,0.2201162,0.143384,-2.0861626e-07,0.045705408,-0.03748106,-0.35034588,-0.2689983,-0.025945434,0.04994766,0.011585729,2.3042223,-1.2591473,0.40293023,-1.9373847,0.0008770285,0.19258499,-0.026442554,6.2218314e-05,-9.646487,12.741607,0.25740007,0.2408713,0.10953643,0.065660596,inf,inf,inf,inf,1,1,1,1,3,2,3,2,3,1,1,1,0,0,0
224362240,224361729,42042859,60.1877325,24.832678599999998,-5.9546824,-14.053876,-15.485078,0.2201162,0.143384,-2.0861626e-07,0.068763986,-0.016349694,-0.34534454,-0.26589078,-0.025945434,0.04994766,0.011585729,1.0471478,1.3714633,0.23567836,-1.9463794,0.0008782205,0.18368277,-0.026442554,6.220853e-05,-9.646487,12.769357,0.25735238,0.24108872,0.10964988,0.06567145,inf,inf,inf,inf,1,1,1,1,3,2,3,2,3,1,1,1,0,0,0
224462238,224461729,42042859,60.1877325,24.832678599999998,-5.94551,-14.052162,-15.513341,0.2201162,0.143384,-2.0861626e-07,0.07590368,-0.017772578,-0.33089188,-0.25425968,-0.025945434,0.04994766,0.011585729,-1.7360353,0.91780424,2.2452047,-1.9577758,0.0008793768,0.1721273,-0.026442554,6.219217e-05,-9.646487,12.79762,0.2573066,0.24074228,0.10973437,0.06563752,inf,inf,inf,inf,1,1,1,1,3,2,3,2,3,1,1,1,0,0,0
224562248,224561729,42042859,60.1877325,24.832678599999998,-5.934655,-14.051677,-15.541747,0.2201162,0.143384,-2.0861626e-07,0.09639226,-0.013906552,-0.33082455,-0.2571763,-0.025945434,0.04994766,0.011585729,1.757619,-3.129992,-0.005818348,-1.9695212,0.00088051136,0.16021584,-0.026442554,6.216096e-05,-9.646487,12.826026,0.25726265,0.24096331,0.10964175,0.065645635,inf,inf,inf,inf,1,1,1,1,3,2,3,2,3,1,1,1,0,0,0
224662242,224661729,42042859,60.1877325,24.832678599999998,-5.924443,-14.048356,-15.569333,0.2201162,0.143384,-2.0861626e-07,0.09726027,0.019901004,-0.34534448,-0.2733505,-0.025945434,0.04994766,0.011585729,0.09655786,0.18579306,0.86268765,-1.9810642,0.00088165805,0.14855184,-0.026442554,6.215394e-05,-9.646487,12.853612,0.25722232,0.24062587,0.109643586,0.06561433,inf,inf,inf,inf,1,1,1,1,3,2,3,2,3,1,1,1,0,0,0
224762507,224761729,42042859,60.1877325,24.832678599999998,-5.9191017,-14.042244,-15.596837,0.2201162,0.143384,-2.0861626e-07,0.078139335,0.031358138,-0.33245024,-0.2613347,-0.025945434,0.04994766,0.011585729,-1.2004254,-0.3951824,1.301145,-1.9905162,0.0008827854,0.13901216,-0.026442554,6.2124935e-05,-9.646487,12.881116,0.25718144,0.24085455,0.109620616,0.065628886,inf,inf,inf,inf,1,1,1,1,3,2,3,2,3,1,1,1,0,0,0
224862275,224861729,42042859,60.1877325,24.832678599999998,-5.9153647,-14.036762,-15.624594,0.2201162,0.143384,-2.0861626e-07,0.063332245,0.042225927,-0.33494183,-0.2653256,-0.025945434,0.04994766,0.011585729,0.011098533,0.37382016,-1.0286713,-1.9974675,0.0008839802,0.1321642,-0.026442554,6.2117266e-05,-9.646487,12.908873,0.257144,0.24052556,0.10963144,0.06559092,inf,inf,inf,inf,1,1,1,1,3,2,3,2,3,1,1,1,0,0,0
224962276,224961733,42042859,60.1877325,24.832678599999998,-5.908845,-14.031782,-15.651956,0.2201162,0.143384,-2.0861626e-07,0.05415736,0.05135022,-0.32907307,-0.26098076,-0.025945434,0.04994766,0.011585729,-1.2917377,-3.0654938,0.5525621,-2.0014505,0.00088522444,0.12840563,-0.026442554,6.215519e-05,-9.646487,12.936234,0.25727358,0.24026296,0.109875016,0.06560625,inf,inf,inf,inf,1,1,1,1,3,2,3,2,3,1,1,1,0,0,0
225062297,225061729,42042859,60.1877325,24.832678599999998,-5.9008875,-14.024349,-15.678998,0.2201162,0.143384,-2.0861626e-07,0.054834697,0.0569109,-0.32636485,-0.25940096,-0.025945434,0.04994766,0.011585729,0.5166531,0.32830733,0.66087747,-2.00028,0.00088647177,0.1297359,-0.026442554,6.218074e-05,-9.646487,12.963277,0.25744915,0.24058592,0.11010819,0.06568725,inf,inf,inf,inf,1,1,1,1,3,2,3,2,3,1,1,1,0,0,0
225162267,225161729,42042859,60.1877325,24.832678599999998,-5.8910317,-14.014118,-15.705044,0.2201162,0.143384,-2.0861626e-07,0.051888872,0.04398302,-0.30427012,-0.23846702,-0.025945434,0.04994766,0.011585729,-0.8831082,0.8198791,2.4967475,-1.9945619,0.00088779366,0.1354688,-0.026442554,6.216175e-05,-9.646487,12.989323,0.2574113,0.24026443,0.11002514,0.06564068,inf,inf,inf,inf,1,1,1,1,3,2,3,2,3,1,1,1,0,0,0
225262456,225261730,42042859,60.1877325,24.832678599999998,-5.881291,-14.007968,-15.7296505,0.2201162,0.143384,-2.0861626e-07,0.056159038,0.02071823,-0.2939298,-0.22952846,-0.025945434,0.04994766,0.011585729,0.7582117,-0.6234555,0.27787405,-1.9845628,0.000889087,0.14551355,-0.026442554,6.213422e-05,-9.646487,13.013929,0.25739536,0.24051435,0.110016786,0.06566803,inf,inf,inf,inf,1,1,1,1,3,2,3,2,3,1,1,1,0,0,0
225362247,225361729,42042859,60.1877325,24.832678599999998,-5.873946,-14.005246,-15.754182,0.2201162,0.143384,-2.0861626e-07,0.068807535,0.01055487,-0.29708648,-0.23429263,-0.025945434,0.04994766,0.011585729,-0.8794421,0.22402854,-0.31395063,-1.9734433,0.00089044217,0.15677652,-0.026442554,6.212196e-05,-9.646487,13.038461,0.2573606,0.2401949,0.10990831,0.06562256,inf,inf,inf,inf,1,1,1,1,3,2,3,2,3,1,1,1,0,0,0
225462200,225461729,42042859,60.1877325,24.832678599999998,-5.8685083,-14.0024605,-15.778709,0.2201162,0.143384,-2.0861626e-07,0.08580121,0.0014985792,-0.29568836,-0.23467559,-0.025945434,0.04994766,0.011585729,0.54491025,1.6446815,0.5882984,-1.964286,0.0008917906,0.16610713,-0.026442554,6.2113126e-05,-9.646487,13.062988,0.257327,0.2404372,0.10988182,0.06563805,inf,inf,inf,inf,1,1,1,1,3,2,3,2,3,1,1,1,0,0,0
225662201,225661729,42042859,60.1877325,24.832678599999998,-5.8516192,-13.993962,-15.82892,0.2201162,0.143384,-2.0861626e-07,0.07440927,-0.013228071,-0.29103568,-0.2340865,-0.025945434,0.04994766,0.011585729,0.341826,-3.193077,-0.57641584,-1.9595513,0.00089437596,0.16963764,-0.026442554,6.208888e-05,-9.646487,13.113199,0.25730333,0.24037555,0.109915055,0.06562339,inf,inf,inf,inf,1,1,1,1,3,2,3,2,3,1,1,1,0,0,0
225762371,225761729,42042859,60.1877325,24.832678599999998,-5.846197,-13.991481,-15.854587,0.2201162,0.143384,-2.0861626e-07,0.041518908,0.011969232,-0.29414764,-0.23902975,-0.025945434,0.04994766,0.011585729,0.43281162,2.2632656,0.25577006,-1.9612272,0.0008956108,0.1672995,-0.026442554,6.206342e-05,-9.646487,13.138865,0.25729188,0.2400649,0.10989065,0.0655922,inf,inf,inf,inf,1,1,1,1,3,2,3,2,3,1,1,1,0,0,0
225862196,225861729,42042859,60.1877325,24.832678599999998,-5.8464613,-13.987711,-15.8812,0.2201162,0.143384,-2.0861626e-07,-0.0067675062,0.010464228,-0.3012904,-0.24855576,-0.025945434,0.04994766,0.011585729,-2.0427713,-1.5297002,0.10456052,-1.9647533,0.0008968899,0.1637524,-0.026442554,6.206123e-05,-9.646487,13.165479,0.25728258,0.24031346,0.10992439,0.065616034,inf,inf,inf,inf,1,1,1,1,3,2,3,2,3,1,1,1,0,0,0
225962207,225961729,42042859,60.1877325,24.832678599999998,-5.8515415,-13.983468,-15.909756,0.2201162,0.143384,-2.0861626e-07,-0.06309408,0.019651165,-0.31171596,-0.26161033,-0.025945434,0.04994766,0.011585729,-0.9704078,-0.89233553,-0.4770385,-1.9661739,0.0008981806,0.16270651,-0.026442554,6.205495e-05,-9.646487,13.194035,0.25727323,0.24000493,0.10991587,0.06558922,inf,inf,inf,inf,1,1,1,1,3,2,3,2,3,1,1,1,0,0,0
226062223,226061729,42042859,60.1877325,24.832678599999998,-5.8584003,-13.977182,-15.934345,0.2201162,0.143384,-2.0861626e-07,-0.08382055,0.086355336,-0.20706905,-0.15899514,-0.025945434,0.04994766,0.011585729,0.113544844,0.22473715,-0.911312,-1.9613065,0.00089940167,0.16787784,-0.026442554,6.20311e-05,-9.646487,13.218624,0.2572695,0.24026014,0.10999095,0.06561491,inf,inf,inf,inf,1,1,1,1,3,2,3,2,3,1,1,1,0,0,0
226162245,226161729,42042859,60.1877325,24.832678599999998,-5.8685803,-13.968344,-15.953064,0.2201162,0.143384,-2.0861626e-07,-0.10695287,0.07327193,-0.24647084,-0.19988497,-0.025945434,0.04994766,0.011585729,-0.75818187,-0.95065844,-1.692007,-1.9526634,0.00090064266,0.17617708,-0.026442554,6.201408e-05,-9.646487,13.237343,0.25724494,0.23995109,0.11002423,0.06558789,inf,inf,inf,inf,1,1,1,1,3,2,3,2,3,1,1,1,0,0,0
226262432,226261729,42042859,60.1877325,24.832678599999998,-5.8828754,-13.957026,-15.977657,0.2201162,0.143384,-2.0861626e-07,-0.1112411,0.10085712,-0.28578696,-0.24159597,-0.025945434,0.04994766,0.011585729,-1.3165268,-1.5205115,0.87774676,-1.9469725,0.00090179907,0.18203145,-0.026442554,6.200571e-05,-9.646487,13.261936,0.2572301,0.23964265,0.10961774,0.06556091,inf,inf,inf,inf,1,1,1,1,3,2,3,2,3,1,1,1,0,0,0
226362244,226361729,42042859,60.1877325,24.832678599999998,-5.8968773,-13.9442625,-16.007832,0.2201162,0.143384,-2.0861626e-07,-0.116211325,0.098444894,-0.3219303,-0.28112486,-0.025945434,0.04994766,0.011585729,-2.5074563,-0.70281357,-1.3703214,-1.9455444,0.000902918,0.18355052,-0.026442554,6.2008665e-05,-9.646487,13.29211,0.2572108,0.23989645,0.10976448,0.06557802,inf,inf,inf,inf,1,1,1,1,3,2,3,2,3,1,1,1,0,0,0
226462281,226461729,42042859,60.1877325,24.832678599999998,-5.90768,-13.932828,-16.039967,0.2201162,0.143384,-2.0861626e-07,-0.1080116,0.08958311,-0.3323362,-0.2946244,-0.025945434,0.04994766,0.011585729,-0.22406273,0.10661768,1.1548696,-1.9449185,0.00090410956,0.18418379,-0.026442554,6.200371e-05,-9.646487,13.324245,0.25719342,0.23959419,0.10989576,0.06555635,inf,inf,inf,inf,1,1,1,1,3,2,3,2,3,1,1,1,0,0,0
226562247,226561729,42042859,60.1877325,24.832678599999998,-5.9174495,-13.921986,-16.066841,0.2201162,0.143384,-2.0861626e-07,-0.11974148,0.11491487,-0.20953642,-0.17388082,-0.025945434,0.04994766,0.011585729,-4.870899,-2.444843,1.0569451,-1.9432069,0.0009052834,0.18573777,-0.026442554,6.1967934e-05,-9.646487,13.35112,0.25718176,0.2398539,0.109910294,0.06558581,inf,inf,inf,inf,1,1,1,1,3,2,3,2,3,1,1,1,0,0,0
226662235,226661729,42042859,60.1877325,24.832678599999998,-5.929285,-13.913331,-16.08744,0.2201162,0.143384,-2.0861626e-07,-0.116739765,0.09158419,-0.2540678,-0.21966708,-0.025945434,0.04994766,0.011585729,2.1909523,5.1032915,-2.9777968,-1.9449492,0.000906452,0.1839727,-0.026442554,6.195129e-05,-9.646487,13.371719,0.25717264,0.23955587,0.109904625,0.06555645,inf,inf,inf,inf,1,1,1,1,3,2,3,2,3,1,1,1,0,0,0
226762413,226761729,42042859,60.1877325,24.832678599999998,-5.9429746,-13.902356,-16.10967,0.2201162,0.143384,-2.0861626e-07,-0.11190098,0.08198755,-0.24909937,-0.21548519,-0.025945434,0.04994766,0.011585729,-1.318113,-0.6396235,0.52689594,-1.9491675,0.00090766355,0.18016791,-0.026442554,6.1949715e-05,-9.646487,13.3939495,0.25718665,0.23982473,0.10951919,0.06560261,inf,inf,inf,inf,1,1,1,1,3,2,3,2,3,1,1,1,0,0,0
226862233,226861729,42042859,60.1877325,24.832678599999998,-5.9545956,-13.890942,-16.131351,0.2201162,0.143384,-2.0861626e-07,-0.11246979,0.067871615,-0.22645582,-0.19399525,-0.025945434,0.04994766,0.011585729,-1.359781,1.4083751,0.28443915,-1.9550111,0.0009088744,0.17500919,-0.026442554,6.196365e-05,-9.646487,13.41563,0.25719705,0.23953746,0.10968591,0.06556533,inf,inf,inf,inf,1,1,1,1,3,2,3,2,3,1,1,1,0,0,0
226962242,226961729,42042859,60.1877325,24.832678599999998,-5.963634,-13.881598,-16.152605,0.2201162,0.143384,-2.0861626e-07,-0.0966811,0.036523677,-0.22552182,-0.1949691,-0.025945434,0.04994766,0.011585729,-0.8513836,1.3468887,0.5460685,-1.9628732,0.00091008743,0.1672973,-0.026442554,6.196584e-05,-9.646487,13.436884,0.25719285,0.23979953,0.10965771,0.065601915,inf,inf,inf,inf,1,1,1,1,3,2,3,2,3,1,1,1,0,0,0
227062240,227061729,42042859,60.1877325,24.832678599999998,-5.9718866,-13.874976,-16.170368,0.2201162,0.143384,-2.0861626e-07,-0.07051539,0.059562624,-0.11385867,-0.085922316,-0.025945434,0.04994766,0.011585729,0.12687391,-1.065265,1.7934067,-1.9687496,0.00091122795,0.16140574,-0.026442554,6.194859e-05,-9.646487,13.454647,0.25718743,0.2395038,0.10959852,0.06558531,inf,inf,inf,inf,1,1,1,1,3,2,3,2,3,1,1,1,0,0,0
227162235,227161730,42042859,60.1877325,24.832678599999998,-5.977029,-13.868721,-16.184885,0.2201162,0.143384,-2.0861626e-07,-0.04705022,0.033851564,-0.18034422,-0.155295,-0.025945434,0.04994766,0.011585729,1.9729633,0.7671722,-1.1652755,-1.9756914,0.00091237045,0.15440764,-0.026442554,6.1951614e-05,-9.646487,13.469164,0.25717703,0.2397631,0.10965624,0.06561175,inf,inf,inf,inf,1,1,1,1,3,2,3,2,3,1,1,1,0,0,0
227362270,227361729,42042859,60.1877325,24.832678599999998,-5.9844093,-13.855832,-16.228264,0.2201162,0.143384,-2.0861626e-07,-0.038889498,0.010224106,-0.2705085,-0.24972081,-0.025945434,0.04994766,0.011585729,-0.38678896,-1.9265106,-1.0812255,-1.9921685,0.00091476593,0.13722855,-0.026442554,6.197042e-05,-9.646487,13.512543,0.25715595,0.23972197,0.109503336,0.06561331,inf,inf,inf,inf,1,1,1,1,3,2,3,2,3,1,1,1,0,0,0
227462241,227461729,42042859,60.1877325,24.832678599999998,-5.988427,-13.853559,-16.257217,0.2201162,0.143384,-2.0861626e-07,-0.03713297,-0.015690468,-0.31100744,-0.2921301,-0.025945434,0.04994766,0.011585729,0.62347,-0.4788016,-2.4173746,-1.9983548,0.0009159531,0.13102026,-0.026442554,6.1971936e-05,-9.646487,13.541496,0.25714526,0.23942168,0.1096076,0.06559829,inf,inf,inf,inf,1,1,1,1,3,2,3,2,3,1,1,1,0,0,0
227562239,227561729,42042859,60.1877325,24.832678599999998,-5.9952655,-13.853734,-16.285221,0.2201162,0.143384,-2.0861626e-07,-0.035736263,0.010722686,-0.2174972,-0.20084594,-0.025945434,0.04994766,0.011585729,1.5830917,-4.2327776,-0.48149693,-2.0035005,0.00091714185,0.12593074,-0.026442554,6.193831e-05,-9.646487,13.5695,0.25712734,0.23911677,0.10975222,0.06557506,inf,inf,inf,inf,1,1,1,1,3,2,3,2,3,1,1,1,0,0,0
227662243,227661729,42042859,60.1877325,24.832678599999998,-6.0031767,-13.857155,-16.309296,0.2201162,0.143384,-2.0861626e-07,-0.06743602,-0.024548544,-0.26622513,-0.25127196,-0.025945434,0.04994766,0.011585729,-0.78988534,-2.1611533,-0.027148616,-2.009356,0.00091831904,0.12009106,-0.026442554,6.19184e-05,-9.646487,13.593575,0.2571133,0.23936565,0.10989986,0.06560898,inf,inf,inf,inf,1,1,1,1,3,2,3,2,3,1,1,1,0,0,0
227762392,227761729,42042859,60.1877325,24.832678599999998,-6.0105476,-13.859262,-16.338348,0.2201162,0.143384,-2.0861626e-07,-0.07029628,-0.0015285028,-0.30713135,-0.2925873,-0.025945434,0.04994766,0.011585729,-0.8374345,-0.7944759,2.962275,-2.014152,0.00091951346,0.11528711,-0.026442554,6.189556e-05,-9.646487,13.622627,0.25709555,0.2390582,0.109573506,0.06558845,inf,inf,inf,inf,1,1,1,1,3,2,3,2,3,1,1,1,0,0,0
227862208,227861729,42042859,60.1877325,24.832678599999998,-6.018908,-13.859496,-16.368155,0.2201162,0.143384,-2.0861626e-07,-0.07381474,-0.020429982,-0.3166646,-0.30183023,-0.025945434,0.04994766,0.011585729,-0.43143398,0.68346643,-1.1096613,-2.010675,0.0009206082,0.11897796,-0.026442554,6.189589e-05,-9.646487,13.652433,0.25709727,0.23931155,0.1098472,0.065627806,inf,inf,inf,inf,1,1,1,1,3,2,3,2,3,1,1,1,0,0,0
227962205,227961729,42042859,60.1877325,24.832678599999998,-6.0281844,-13.863271,-16.398613,0.2201162,0.143384,-2.0861626e-07,-0.06512513,-0.057260692,-0.31139493,-0.29677817,-0.025945434,0.04994766,0.011585729,-0.23648751,-0.08138193,0.88233334,-2.0003738,0.0009218144,0.12994164,-0.026442554,6.187115e-05,-9.646487,13.682892,0.25707263,0.23899902,0.1099123,0.06561403,inf,inf,inf,inf,1,1,1,1,3,2,3,2,3,1,1,1,0,0,0
228062209,228061729,42042859,60.1877325,24.832678599999998,-6.0381174,-13.870768,-16.424015,0.2201162,0.143384,-2.0861626e-07,-0.048717376,-0.038772333,-0.20532392,-0.19104417,-0.025945434,0.04994766,0.011585729,-1.7135937,0.11386267,-1.5831599,-1.9775229,0.00092298357,0.1529213,-0.026442554,6.182522e-05,-9.646487,13.708294,0.2570482,0.2392381,0.10990377,0.06565514,inf,inf,inf,inf,1,1,1,1,3,2,3,2,3,1,1,1,0,0,0
228162202,228161729,42042859,60.1877325,24.832678599999998,-6.04515,-13.882993,-16.444252,0.2201162,0.143384,-2.0861626e-07,0.00077826134,-0.09954118,-0.2500783,-0.23549177,-0.025945434,0.04994766,0.011585729,0.92391604,0.9396998,0.42344016,-1.9503766,0.0009241138,0.18032269,-0.026442554,6.180117e-05,-9.646487,13.728531,0.2570208,0.2389214,0.109918885,0.06563195,inf,inf,inf,inf,1,1,1,1,3,2,3,2,3,1,1,1,0,0,0
228262383,228261729,42042859,60.1877325,24.832678599999998,-6.0435534,-13.8972845,-16.468878,0.2201162,0.143384,-2.0861626e-07,0.07206972,-0.1259577,-0.28056008,-0.26547465,-0.025945434,0.04994766,0.011585729,-1.0772092,-0.5685785,-1.5693011,-1.9318514,0.0009252938,0.19909696,-0.026442554,6.17894e-05,-9.646487,13.753157,0.25701106,0.23916331,0.10956367,0.06567288,inf,inf,inf,inf,1,1,1,1,3,2,3,2,3,1,1,1,0,0,0
228362205,228361729,42042859,60.1877325,24.832678599999998,-6.033579,-13.912923,-16.496655,0.2201162,0.143384,-2.0861626e-07,0.17108499,-0.15053083,-0.31006634,-0.29445985,-0.025945434,0.04994766,0.011585729,3.55108,-1.1421078,-1.2777815,-1.9168855,0.0009263077,0.21359375,-0.026442554,6.178058e-05,-9.646487,13.780933,0.25697762,0.2388451,0.10979904,0.06563433,inf,inf,inf,inf,1,1,1,1,3,2,3,2,3,1,1,1,0,0,0
228462245,228461729,42042859,60.1877325,24.832678599999998,-6.0178604,-13.928624,-16.525188,0.2201162,0.143384,-2.0861626e-07,0.21302283,-0.17298888,-0.32832882,-0.31164315,-0.025945434,0.04994766,0.011585729,2.016374,2.661964,-3.5564017,-1.9096249,0.0009273123,0.21927726,-0.026442554,6.1762104e-05,-9.646487,13.809467,0.25694117,0.23907776,0.10992905,0.06565837,inf,inf,inf,inf,1,1,1,1,3,2,3,2,3,1,1,1,0,0,0
228562233,228561729,42042859,60.1877325,24.832678599999998,-5.998683,-13.946924,-16.548397,0.2201162,0.143384,-2.0861626e-07,0.2503142,-0.15795088,-0.1919421,-0.17348884,-0.025945434,0.04994766,0.011585729,1.2338071,-1.4221708,0.23485553,-1.90415,0.00092800317,0.2234449,-0.026442554,6.1712104e-05,-9.646487,13.832676,0.25690448,0.23875746,0.11004532,0.06562779,inf,inf,inf,inf,1,1,1,1,3,2,3,2,3,1,1,1,0,0,0
228662265,228661729,42042859,60.1877325,24.832678599999998,-5.9777637,-13.969399,-16.565277,0.2201162,0.143384,-2.0861626e-07,0.24664368,-0.19562341,-0.23371172,-0.21310227,-0.025945434,0.04994766,0.011585729,-1.40996,-3.2148995,-0.29397252,-1.9009062,0.00092851056,0.22678235,-0.026442554,6.168391e-05,-9.646487,13.849556,0.25687182,0.23898791,0.11015203,0.0656514,inf,inf,inf,inf,1,1,1,1,3,2,3,2,3,1,1,1,0,0,0
228762448,228761729,42042859,60.1877325,24.832678599999998,-5.9573603,-13.991753,-16.586712,0.2201162,0.143384,-2.0861626e-07,0.22561115,-0.15655637,-0.2780176,-0.25510782,-0.025945434,0.04994766,0.011585729,-1.0624616,3.2792766,2.1989262,-1.9068975,0.00092907227,0.22064736,-0.026442554,6.166306e-05,-9.646487,13.870991,0.25683683,0.2386661,0.10971532,0.06562414,inf,inf,inf,inf,1,1,1,1,3,2,3,2,3,1,1,1,0,0,0
228862275,228861729,42042859,60.1877325,24.832678599999998,-5.9394493,-14.0110655,-16.611084,0.2201162,0.143384,-2.0861626e-07,0.17468166,-0.16616112,-0.28917554,-0.2649353,-0.025945434,0.04994766,0.011585729,-0.47126994,0.63386273,-1.6896101,-1.9194485,0.00092960073,0.20744908,-0.026442554,6.165527e-05,-9.646487,13.895363,0.25679252,0.23834072,0.109890826,0.06557101,inf,inf,inf,inf,1,1,1,1,3,2,3,2,3,1,1,1,0,0,0
228962283,228961730,42042859,60.1877325,24.832678599999998,-5.9252253,-14.028329,-16.636087,0.2201162,0.143384,-2.0861626e-07,0.12525211,-0.16674592,-0.27015394,-0.24525021,-0.025945434,0.04994766,0.011585729,-2.1374667,-1.9604046,2.2418208,-1.9337316,0.0009304194,0.19313821,-0.026442554,6.164042e-05,-9.646487,13.920366,0.25675172,0.23856653,0.109833755,0.065596916,inf,inf,inf,inf,1,1,1,1,3,2,3,2,3,1,1,1,0,0,0
229062286,229061729,42042859,60.1877325,24.832678599999998,-5.9165597,-14.045361,-16.65528,0.2201162,0.143384,-2.0861626e-07,0.08629255,-0.112747155,-0.15275843,-0.12724188,-0.025945434,0.04994766,0.011585729,0.13134849,-2.137768,0.49113613,-1.9465863,0.0009314867,0.18054749,-0.026442554,6.160524e-05,-9.646487,13.939558,0.25670657,0.2382395,0.10972967,0.06557757,inf,inf,inf,inf,1,1,1,1,3,2,3,2,3,1,1,1,0,0,0
229162241,229161729,42042859,60.1877325,24.832678599999998,-5.914657,-14.062681,-16.669395,0.2201162,0.143384,-2.0861626e-07,0.03265968,-0.09337731,-0.19844833,-0.17281732,-0.025945434,0.04994766,0.011585729,-0.57865965,5.6226683,-1.5690463,-1.9528465,0.0009327588,0.17418516,-0.026442554,6.159356e-05,-9.646487,13.953674,0.25666448,0.23846361,0.10964602,0.06559956,inf,inf,inf,inf,1,1,1,1,3,2,3,2,3,1,1,1,0,0,0
229262441,229261730,42042859,60.1877325,24.832678599999998,-5.9143023,-14.077466,-16.688835,0.2201162,0.143384,-2.0861626e-07,0.016811218,-0.08527698,-0.22258933,-0.1980312,-0.025945434,0.04994766,0.011585729,0.07866129,-0.60558033,1.8437467,-1.9489934,0.00093421026,0.17830174,-0.026442554,6.159043e-05,-9.646487,13.973114,0.25662014,0.238136,0.10917701,0.06558629,inf,inf,inf,inf,1,1,1,1,3,2,3,2,3,1,1,1,0,0,0
229362253,229361729,42042859,60.1877325,24.832678599999998,-5.9126554,-14.089128,-16.71302,0.2201162,0.143384,-2.0861626e-07,0.03018358,-0.058532026,-0.26236114,-0.23965707,-0.025945434,0.04994766,0.011585729,1.3958321,1.5201294,1.2114843,-1.9377381,0.0009357265,0.1903022,-0.026442554,6.160236e-05,-9.646487,13.997299,0.2565733,0.23835698,0.109283715,0.06560932,inf,inf,inf,inf,1,1,1,1,3,2,3,2,3,1,1,1,0,0,0
229462207,229461729,42042859,60.1877325,24.832678599999998,-5.9115157,-14.098094,-16.739544,0.2201162,0.143384,-2.0861626e-07,0.015876625,-0.07957947,-0.3014346,-0.27971384,-0.025945434,0.04994766,0.011585729,-0.14001219,3.0159264,-2.6105301,-1.9301659,0.0009373807,0.19797784,-0.026442554,6.160542e-05,-9.646487,14.023823,0.25652975,0.23802833,0.10938275,0.065587685,inf,inf,inf,inf,1,1,1,1,3,2,3,2,3,1,1,1,0,0,0
229562205,229561729,42042859,60.1877325,24.832678599999998,-5.9093246,-14.1074705,-16.762993,0.2201162,0.143384,-2.0861626e-07,0.03701407,-0.05232195,-0.17549194,-0.15441477,-0.025945434,0.04994766,0.011585729,-2.228974,-1.3711802,-0.2629509,-1.9254409,0.0009389683,0.20240624,-0.026442554,6.15774e-05,-9.646487,14.047272,0.25648016,0.23824775,0.10943902,0.06561606,inf,inf,inf,inf,1,1,1,1,3,2,3,2,3,1,1,1,0,0,0
229662212,229661729,42042859,60.1877325,24.832678599999998,-5.90575,-14.117932,-16.781218,0.2201162,0.143384,-2.0861626e-07,0.047763433,-0.05949627,-0.21948625,-0.19882435,-0.025945434,0.04994766,0.011585729,2.01311,-0.3645609,0.39109495,-1.9241383,0.00094064634,0.20375971,-0.026442554,6.156576e-05,-9.646487,14.065496,0.25643536,0.23791873,0.10952872,0.06559172,inf,inf,inf,inf,1,1,1,1,3,2,3,2,3,1,1,1,0,0,0
229762384,229761729,42042859,60.1877325,24.832678599999998,-5.9017386,-14.128232,-16.804758,0.2201162,0.143384,-2.0861626e-07,0.056105234,-0.03304544,-0.28537425,-0.26489884,-0.025945434,0.04994766,0.011585729,-0.7063156,2.324749,-1.7790588,-1.92548,0.00094232755,0.20244955,-0.026442554,6.155894e-05,-9.646487,14.089037,0.2563898,0.23813519,0.10914137,0.06562599,inf,inf,inf,inf,1,1,1,1,3,2,3,2,3,1,1,1,0,0,0
229862213,229861729,42042859,60.1877325,24.832678599999998,-5.898316,-14.136949,-16.832134,0.2201162,0.143384,-2.0861626e-07,0.05303336,-0.037716497,-0.30335167,-0.28310922,-0.025945434,0.04994766,0.011585729,0.3846321,-0.5167641,0.9076951,-1.9298056,0.00094408257,0.19810127,-0.026442554,6.156092e-05,-9.646487,14.116413,0.256341,0.23780827,0.109325685,0.065583795,inf,inf,inf,inf,1,1,1,1,3,2,3,2,3,1,1,1,0,0,0
229962296,229961729,42042859,60.1877325,24.832678599999998,-5.895716,-14.142457,-16.861727,0.2201162,0.143384,-2.0861626e-07,0.04515898,-0.03739852,-0.31146055,-0.2918051,-0.025945434,0.04994766,0.011585729,-0.2540867,1.200308,-0.59340394,-1.9360259,0.00094587356,0.19168736,-0.026442554,6.1552935e-05,-9.646487,14.146006,0.25629023,0.23748225,0.109424,0.065553,inf,inf,inf,inf,1,1,1,1,3,2,3,2,3,1,1,1,0,0,0
230062215,230061729,42042859,60.1877325,24.832678599999998,-5.89283,-14.148572,-16.887209,0.2201162,0.143384,-2.0861626e-07,0.051500607,-0.00012317661,-0.18585481,-0.16752769,-0.025945434,0.04994766,0.011585729,-1.039102,0.9820558,0.5012786,-1.9411241,0.0009475976,0.18650943,-0.026442554,6.1517116e-05,-9.646487,14.171488,0.25624081,0.23769954,0.109501496,0.06558682,inf,inf,inf,inf,1,1,1,1,3,2,3,2,3,1,1,1,0,0,0
230162238,230161729,42042859,60.1877325,24.832678599999998,-5.8908534,-14.157213,-16.90643,0.2201162,0.143384,-2.0861626e-07,0.04450997,-0.029471843,-0.2099596,-0.19313788,-0.025945434,0.04994766,0.011585729,-0.54972863,0.8934273,-0.01745541,-1.945486,0.0009494114,0.18212986,-0.026442554,6.1504434e-05,-9.646487,14.190708,0.25619683,0.23737316,0.109553024,0.06555901,inf,inf,inf,inf,1,1,1,1,3,2,3,2,3,1,1,1,0,0,0
230262447,230261729,42042859,60.1877325,24.832678599999998,-5.889081,-14.1650095,-16.928326,0.2201162,0.143384,-2.0861626e-07,0.040252656,-0.019403692,-0.23855497,-0.222846,-0.025945434,0.04994766,0.011585729,-0.8171088,0.2330689,-0.42198393,-1.9492415,0.00095115113,0.17832394,-0.026442554,6.149742e-05,-9.646487,14.2126045,0.2561504,0.2375918,0.10909787,0.06559307,inf,inf,inf,inf,1,1,1,1,3,2,3,2,3,1,1,1,0,0,0
230362259,230361729,42042859,60.1877325,24.832678599999998,-5.886342,-14.17071,-16.95301,0.2201162,0.143384,-2.0861626e-07,0.050260812,-0.025233552,-0.2564688,-0.24188966,-0.025945434,0.04994766,0.011585729,-0.16935353,0.15916091,-0.94208735,-1.9517823,0.00095298426,0.17605278,-0.026442554,6.150817e-05,-9.646487,14.237289,0.25610211,0.23726474,0.10922128,0.06555351,inf,inf,inf,inf,1,1,1,1,3,2,3,2,3,1,1,1,0,0,0
230462204,230461729,42042859,60.1877325,24.832678599999998,-5.8836646,-14.175474,-16.978498,0.2201162,0.143384,-2.0861626e-07,0.053503036,-0.011342351,-0.26619336,-0.2523772,-0.025945434,0.04994766,0.011585729,-0.82914466,2.0211196,0.604715,-1.9551604,0.0009548265,0.17275122,-0.026442554,6.151169e-05,-9.646487,14.262777,0.2560505,0.23748009,0.109314024,0.0655789,inf,inf,inf,inf,1,1,1,1,3,2,3,2,3,1,1,1,0,0,0
